P_Pos, P_Vel, Altitude, Pressure, Acc_X, Acc_Y, Acc_Z, Latitude, Longitude, Altitude_GPS, LOCK, Satellites, q_w, q_x, q_y, q_z
-0.30,0.33,-0.522308,1005.849365,0.029694,0.055442,-0.039444,49.2524375916,-123.2345733643,88.800003,LOCKED,9,0.80,0.16,-0.06,-0.58
-0.30,0.32,-0.522308,1005.849365,0.033281,0.009500,0.018166,49.2524375916,-123.2345733643,88.800003,LOCKED,9,0.80,0.16,-0.06,-0.58
-0.30,0.33,-0.434875,1005.838928,0.019222,0.021641,0.053010,49.2524375916,-123.2345733643,88.800003,LOCKED,9,0.80,0.16,-0.06,-0.58
-0.30,0.33,-0.434875,1005.838928,0.018618,0.023948,0.041222,49.2524375916,-123.2345733643,88.800003,LOCKED,9,0.80,0.16,-0.05,-0.58
-0.30,0.32,-0.377609,1005.832031,0.073177,0.024924,-0.016808,49.2524375916,-123.2345733643,88.800003,LOCKED,9,0.80,0.16,-0.05,-0.58
-0.30,0.32,-0.377609,1005.832031,0.008042,0.026092,0.022389,49.2524375916,-123.2345733643,88.800003,LOCKED,9,0.80,0.16,-0.06,-0.58
-0.29,0.31,-0.334656,1005.826904,-0.008844,0.025346,-0.038141,49.2524375916,-123.2345733643,88.800003,LOCKED,9,0.80,0.16,-0.06,-0.58
-0.29,0.31,-0.334656,1005.826904,0.050867,0.012934,0.037137,49.2524375916,-123.2345733643,88.800003,LOCKED,9,0.80,0.16,-0.06,-0.58
-0.29,0.34,-0.405212,1005.835327,0.072244,0.032456,0.185432,49.2524375916,-123.2345733643,88.800003,LOCKED,9,0.80,0.16,-0.06,-0.58
-0.29,0.34,-0.405212,1005.835327,0.032096,-0.027022,0.030198,49.2524375916,-123.2345733643,88.800003,LOCKED,9,0.80,0.16,-0.05,-0.58
-0.28,0.30,-0.364304,1005.835327,0.049102,-0.022429,-0.164726,49.2524375916,-123.2345733643,88.800003,LOCKED,9,0.80,0.16,-0.06,-0.57
-0.28,0.30,-0.364304,1005.830444,-0.024763,0.036096,-0.018870,49.2524375916,-123.2345733643,88.800003,LOCKED,9,0.80,0.16,-0.06,-0.57
-0.28,0.31,-0.364304,1005.830444,0.041409,0.020922,0.110505,49.2524375916,-123.2345733643,88.800003,LOCKED,9,0.80,0.16,-0.06,-0.57
-0.28,0.33,-0.445099,1005.840149,0.050642,-0.002798,0.141619,49.2524375916,-123.2345733643,88.800003,LOCKED,9,0.80,0.16,-0.06,-0.57
-0.28,0.33,-0.445099,1005.840149,0.061210,-0.057590,0.094415,49.2524375916,-123.2345733643,88.800003,LOCKED,9,0.80,0.16,-0.06,-0.57
-0.28,0.32,-0.431808,1005.838501,0.058763,-0.028430,-0.032043,49.2524375916,-123.2345733643,88.800003,LOCKED,9,0.80,0.16,-0.06,-0.57
-0.29,0.30,-0.431808,1005.838501,-0.037490,0.024994,-0.085926,49.2524375916,-123.2345733643,88.800003,LOCKED,9,0.80,0.16,-0.06,-0.57
-0.29,0.31,-0.387833,1005.833252,0.051072,-0.023136,0.106636,49.2524375916,-123.2345733643,88.800003,LOCKED,9,0.80,0.16,-0.06,-0.57
-0.28,0.32,-0.387833,1005.833252,0.090589,-0.023597,0.107033,49.2524375916,-123.2345733643,88.800003,LOCKED,9,0.80,0.16,-0.06,-0.57
-0.29,0.32,-0.513107,1005.848267,0.060839,-0.052853,0.071404,49.2524375916,-123.2345733643,88.800003,LOCKED,9,0.80,0.16,-0.06,-0.57
-0.29,0.30,-0.513107,1005.848267,0.030304,-0.040525,-0.068687,49.2524375916,-123.2345733643,88.800003,LOCKED,9,0.80,0.16,-0.06,-0.57
-0.29,0.29,-0.360733,1005.830017,0.002542,0.010354,-0.034951,49.2524375916,-123.2345733643,88.800003,LOCKED,9,0.80,0.17,-0.06,-0.57
-0.29,0.28,-0.360733,1005.830017,0.004308,-0.032618,-0.011134,49.2524375916,-123.2345733643,88.800003,LOCKED,9,0.80,0.17,-0.06,-0.57
-0.29,0.28,-0.387833,1005.833252,0.061586,-0.016309,0.013622,49.2524375916,-123.2345733643,88.800003,LOCKED,9,0.80,0.16,-0.06,-0.57
-0.29,0.28,-0.387833,1005.833252,0.039860,-0.019146,0.044164,49.2524375916,-123.2345733643,88.800003,LOCKED,9,0.80,0.16,-0.06,-0.57
-0.29,0.27,-0.375046,1005.831726,0.027631,-0.034414,-0.051482,49.2524375916,-123.2345733643,88.800003,LOCKED,9,0.80,0.16,-0.06,-0.57
-0.29,0.24,-0.375046,1005.831726,0.008225,-0.004729,-0.109764,49.2524375916,-123.2345733643,88.800003,LOCKED,9,0.80,0.17,-0.07,-0.57
-0.29,0.22,-0.472717,1005.843445,-0.004901,0.011216,-0.074468,49.2524375916,-123.2345733643,88.800003,LOCKED,9,0.80,0.17,-0.07,-0.57
-0.29,0.20,-0.472717,1005.843445,0.003781,-0.007923,-0.051827,49.2524375916,-123.2345733643,88.800003,LOCKED,9,0.80,0.17,-0.07,-0.57
-0.30,0.21,-0.510040,1005.847900,0.045450,0.019616,0.102286,49.2524375916,-123.2345733643,88.800003,LOCKED,9,0.80,0.17,-0.06,-0.57
-0.31,0.21,-0.510040,1005.847900,0.087540,-0.035038,0.076022,49.2524375916,-123.2345733643,88.800003,LOCKED,9,0.80,0.16,-0.06,-0.57
-0.31,0.19,-0.482941,1005.844666,0.048600,-0.001594,-0.053926,49.2524375916,-123.2345733643,88.800003,LOCKED,9,0.80,0.17,-0.06,-0.57
-0.31,0.18,-0.482941,1005.844666,0.022854,0.009551,-0.013947,49.2524375916,-123.2345733643,88.800003,LOCKED,9,0.80,0.17,-0.07,-0.57
-0.32,0.16,-0.510040,1005.847900,0.059774,0.003342,-0.001321,49.2524375916,-123.2345733643,88.800003,LOCKED,9,0.80,0.17,-0.07,-0.57
-0.33,0.18,-0.510040,1005.847900,0.075018,0.018691,0.143177,49.2524375916,-123.2345733643,88.800003,LOCKED,9,0.80,0.17,-0.07,-0.57
-0.33,0.20,-0.479874,1005.844299,0.038156,-0.013610,0.169985,49.2524375916,-123.2345733643,88.800003,LOCKED,9,0.80,0.17,-0.07,-0.57
-0.33,0.20,-0.479874,1005.844299,0.045450,0.002261,0.049553,49.2524375916,-123.2345733643,88.800003,LOCKED,9,0.80,0.17,-0.06,-0.57
-0.33,0.21,-0.452774,1005.841064,0.125418,0.032847,0.062053,49.2524375916,-123.2345733643,88.800003,LOCKED,9,0.81,0.17,-0.07,-0.56
-0.34,0.21,-0.452774,1005.841064,0.006899,-0.004489,0.060597,49.2524375916,-123.2345733643,88.800003,LOCKED,9,0.80,0.17,-0.07,-0.56
-0.34,0.22,-0.449707,1005.840698,0.026004,0.020542,0.078817,49.2524375916,-123.2345733643,88.800003,LOCKED,9,0.80,0.17,-0.07,-0.56
-0.34,0.24,-0.449707,1005.840698,0.071752,0.015380,0.175340,49.2524375916,-123.2345733643,88.800003,LOCKED,9,0.80,0.17,-0.07,-0.56
-0.34,0.27,-0.396011,1005.834229,0.071481,-0.021858,0.166183,49.2524375916,-123.2345733643,88.800003,LOCKED,9,0.81,0.17,-0.07,-0.56
-0.33,0.27,-0.396011,1005.834229,0.060044,-0.008717,0.006551,49.2524375916,-123.2345733643,88.800003,LOCKED,9,0.81,0.17,-0.07,-0.56
-0.33,0.27,-0.355103,1005.829346,-0.011911,-0.005329,0.025860,49.2524375916,-123.2345733643,88.800003,LOCKED,9,0.80,0.17,-0.07,-0.56
-0.33,0.29,-0.355103,1005.829346,0.054290,0.031085,0.099981,49.2524375916,-123.2345733643,88.800003,LOCKED,9,0.80,0.17,-0.07,-0.56
-0.32,0.30,-0.368393,1005.830933,0.086979,0.009046,0.073636,49.2524375916,-123.2345733643,88.800003,LOCKED,9,0.81,0.17,-0.07,-0.56
-0.32,0.29,-0.368393,1005.830933,0.036065,-0.036720,0.005934,49.2524070740,-123.2346420288,88.800003,LOCKED,9,0.81,0.17,-0.07,-0.56
-0.32,0.29,-0.355103,1005.829346,-0.002525,-0.007623,-0.008985,49.2524070740,-123.2346420288,88.800003,LOCKED,9,0.81,0.17,-0.07,-0.56
-0.31,0.28,-0.355103,1005.829346,0.013118,-0.003733,-0.026056,49.2524070740,-123.2346420288,88.800003,LOCKED,9,0.81,0.18,-0.07,-0.56
-0.31,0.28,-0.396011,1005.834229,0.046031,0.011194,0.011835,49.2524070740,-123.2346420288,88.800003,LOCKED,9,0.81,0.17,-0.06,-0.56
-0.31,0.27,-0.396011,1005.834229,0.036344,-0.001695,-0.020528,49.2524070740,-123.2346420288,88.800003,LOCKED,9,0.81,0.17,-0.06,-0.56
-0.31,0.26,-0.308060,1005.823730,0.025767,-0.031553,-0.091911,49.2524070740,-123.2346420288,88.800003,LOCKED,9,0.81,0.18,-0.07,-0.56
-0.30,0.24,-0.308060,1005.823730,0.023207,-0.009652,-0.089300,49.2524070740,-123.2346420288,88.800003,LOCKED,9,0.81,0.18,-0.07,-0.56
-0.29,0.25,-0.227783,1005.814087,0.007774,0.000061,0.022756,49.2524070740,-123.2346420288,88.800003,LOCKED,9,0.81,0.18,-0.07,-0.56
-0.29,0.25,-0.227783,1005.814087,0.030870,0.001219,-0.019649,49.2524070740,-123.2346420288,88.800003,LOCKED,9,0.81,0.18,-0.06,-0.56
-0.28,0.23,-0.322388,1005.825439,0.049662,-0.026967,-0.081565,49.2524070740,-123.2346420288,88.800003,LOCKED,9,0.81,0.17,-0.06,-0.56
-0.28,0.23,-0.322388,1005.825439,0.000585,-0.004059,-0.016390,49.2524070740,-123.2346420288,88.800003,LOCKED,9,0.81,0.18,-0.06,-0.56
-0.28,0.23,-0.322388,1005.825439,0.028793,0.008947,0.033252,49.2524070740,-123.2346420288,88.800003,LOCKED,9,0.81,0.18,-0.06,-0.56
-0.28,0.22,-0.389877,1005.833496,0.032603,0.011792,-0.012125,49.2524070740,-123.2346420288,88.800003,LOCKED,9,0.81,0.18,-0.06,-0.56
-0.28,0.23,-0.389877,1005.833496,0.025351,-0.013966,0.089261,49.2524070740,-123.2346420288,88.800003,LOCKED,9,0.81,0.17,-0.06,-0.56
-0.29,0.23,-0.456863,1005.841553,0.024511,-0.027190,0.071805,49.2524070740,-123.2346420288,88.800003,LOCKED,9,0.81,0.17,-0.06,-0.56
-0.29,0.24,-0.456863,1005.841553,0.057253,-0.020394,0.064283,49.2524070740,-123.2346420288,88.800003,LOCKED,9,0.81,0.18,-0.06,-0.56
-0.29,0.24,-0.456863,1005.841553,0.064879,0.013953,0.093491,49.2524070740,-123.2346420288,88.800003,LOCKED,9,0.81,0.18,-0.06,-0.56
-0.29,0.25,-0.456863,1005.841553,0.038628,-0.007569,0.083115,49.2524070740,-123.2346420288,88.800003,LOCKED,9,0.81,0.18,-0.06,-0.56
-0.30,0.24,-0.430786,1005.838379,0.029255,-0.016932,0.000636,49.2524070740,-123.2346420288,88.800003,LOCKED,9,0.81,0.17,-0.06,-0.56
-0.30,0.24,-0.430786,1005.838379,0.010494,-0.007774,0.050915,49.2524070740,-123.2346420288,88.800003,LOCKED,9,0.81,0.17,-0.06,-0.56
-0.30,0.25,-0.346420,1005.828308,0.020206,-0.013898,0.085640,49.2524070740,-123.2346420288,88.800003,LOCKED,9,0.81,0.17,-0.06,-0.55
-0.29,0.25,-0.346420,1005.828308,0.056182,-0.006945,0.007838,49.2524070740,-123.2346420288,88.800003,LOCKED,9,0.81,0.17,-0.06,-0.55
-0.29,0.25,-0.346420,1005.828308,0.047259,0.004177,-0.015640,49.2524070740,-123.2346420288,88.800003,LOCKED,9,0.81,0.17,-0.06,-0.55
-0.29,0.25,-0.346420,1005.828308,0.014812,-0.004179,0.033073,49.2524070740,-123.2346420288,88.800003,LOCKED,9,0.81,0.17,-0.05,-0.55
-0.29,0.25,-0.291702,1005.821777,0.008245,-0.004447,0.017449,49.2524070740,-123.2346420288,87.199997,LOCKED,9,0.81,0.17,-0.05,-0.55
-0.28,0.25,-0.291702,1005.821777,0.043335,-0.015377,0.002201,49.2524070740,-123.2346420288,87.199997,LOCKED,9,0.82,0.17,-0.05,-0.55
-0.28,0.25,-0.308060,1005.823730,0.019143,-0.005250,0.019466,49.2524070740,-123.2346420288,87.199997,LOCKED,9,0.82,0.17,-0.05,-0.55
-0.27,0.24,-0.308060,1005.823730,0.014837,0.007545,-0.047954,49.2524070740,-123.2346420288,87.199997,LOCKED,9,0.82,0.17,-0.05,-0.55
-0.27,0.23,-0.281479,1005.820557,0.027077,0.011073,-0.095291,49.2524070740,-123.2346420288,87.199997,LOCKED,9,0.82,0.17,-0.05,-0.55
-0.27,0.22,-0.281479,1005.820557,0.009072,0.012006,-0.020689,49.2524070740,-123.2346420288,87.199997,LOCKED,9,0.82,0.17,-0.05,-0.55
-0.26,0.23,-0.251312,1005.816956,0.032169,0.006920,0.034567,49.2524070740,-123.2346420288,87.199997,LOCKED,9,0.82,0.17,-0.05,-0.55
-0.26,0.23,-0.251312,1005.816956,0.024359,0.019638,-0.009745,49.2524070740,-123.2346420288,87.199997,LOCKED,9,0.82,0.17,-0.05,-0.55
-0.25,0.23,-0.265106,1005.818604,0.033018,-0.012507,0.049342,49.2524070740,-123.2346420288,87.199997,LOCKED,9,0.82,0.17,-0.05,-0.55
-0.25,0.24,-0.265106,1005.818604,0.015212,0.001096,0.035228,49.2524070740,-123.2346420288,87.199997,LOCKED,9,0.82,0.17,-0.05,-0.55
-0.25,0.25,-0.251312,1005.816956,0.018383,-0.013939,0.027516,49.2524070740,-123.2346420288,87.199997,LOCKED,9,0.82,0.17,-0.05,-0.55
-0.24,0.26,-0.251312,1005.816956,0.038006,0.008254,0.061844,49.2524070740,-123.2346420288,87.199997,LOCKED,9,0.82,0.18,-0.05,-0.54
-0.24,0.26,-0.277893,1005.820129,0.052919,-0.017437,0.063362,49.2524070740,-123.2346420288,87.199997,LOCKED,9,0.82,0.17,-0.05,-0.54
-0.24,0.27,-0.277893,1005.820129,0.014738,0.001690,0.060717,49.2524070740,-123.2346420288,87.199997,LOCKED,9,0.82,0.17,-0.05,-0.54
-0.23,0.29,-0.291702,1005.821777,0.035768,-0.011036,0.101614,49.2524070740,-123.2346420288,87.199997,LOCKED,9,0.82,0.18,-0.05,-0.54
-0.23,0.29,-0.291702,1005.821777,0.042603,-0.014155,0.045896,49.2524070740,-123.2346420288,87.199997,LOCKED,9,0.82,0.18,-0.05,-0.54
-0.23,0.29,-0.305511,1005.823425,0.029345,-0.013232,0.014462,49.2524070740,-123.2346420288,87.199997,LOCKED,9,0.82,0.18,-0.05,-0.54
-0.23,0.28,-0.305511,1005.823425,0.036001,0.005757,-0.032484,49.2524070740,-123.2346420288,87.199997,LOCKED,9,0.82,0.18,-0.05,-0.54
-0.23,0.28,-0.305511,1005.823425,0.048190,-0.005596,0.000288,49.2524070740,-123.2346420288,87.199997,LOCKED,9,0.82,0.18,-0.05,-0.54
-0.23,0.29,-0.305511,1005.823425,0.044712,-0.008915,0.103128,49.2524070740,-123.2346420288,87.199997,LOCKED,9,0.82,0.18,-0.05,-0.54
-0.22,0.29,-0.335678,1005.827026,0.045975,-0.035511,0.041702,49.2524070740,-123.2346420288,87.199997,LOCKED,9,0.82,0.18,-0.05,-0.54
-0.22,0.27,-0.335678,1005.827026,0.014623,-0.014704,-0.074998,49.2524070740,-123.2346420288,87.199997,LOCKED,9,0.82,0.18,-0.05,-0.54
-0.22,0.27,-0.224213,1005.813660,0.022845,-0.003303,-0.033313,49.2524070740,-123.2346420288,87.199997,LOCKED,9,0.82,0.18,-0.05,-0.54
-0.22,0.25,-0.224213,1005.813660,0.020629,-0.001466,-0.063773,49.2524070740,-123.2346420288,87.199997,LOCKED,9,0.82,0.18,-0.05,-0.54
-0.21,0.25,-0.180237,1005.808411,0.039934,0.008095,-0.037539,49.2524070740,-123.2346420288,87.199997,LOCKED,9,0.82,0.18,-0.05,-0.54
-0.20,0.25,-0.180237,1005.808411,0.036275,0.003306,0.006022,49.2524070740,-123.2346420288,87.199997,LOCKED,9,0.82,0.18,-0.05,-0.54
-0.20,0.25,-0.194031,1005.810059,0.002435,-0.004796,0.004106,49.2524070740,-123.2346420288,87.199997,LOCKED,9,0.82,0.18,-0.05,-0.54
-0.19,0.25,-0.194031,1005.810059,0.012636,0.004156,-0.007416,49.2524070740,-123.2346420288,87.199997,LOCKED,9,0.82,0.18,-0.05,-0.54
-0.19,0.25,-0.261536,1005.818176,0.034180,0.015519,0.015085,49.2524070740,-123.2346420288,87.199997,LOCKED,9,0.82,0.18,-0.05,-0.54
-0.19,0.26,-0.261536,1005.818176,0.022655,0.009937,0.069524,49.2524070740,-123.2346420288,87.199997,LOCKED,9,0.82,0.18,-0.05,-0.54
-0.19,0.27,-0.204773,1005.811340,0.021217,-0.000161,0.048858,49.2524070740,-123.2346420288,87.199997,LOCKED,9,0.82,0.18,-0.05,-0.54
-0.18,0.27,-0.204773,1005.811340,0.044702,0.001978,0.029694,49.2524070740,-123.2346420288,87.199997,LOCKED,9,0.82,0.18,-0.05,-0.54
-0.18,0.29,-0.204773,1005.811340,0.019307,0.004675,0.126791,49.2524070740,-123.2346420288,87.199997,LOCKED,9,0.82,0.18,-0.05,-0.54
-0.18,0.31,-0.190964,1005.809692,0.018777,-0.016594,0.092928,49.2524070740,-123.2346420288,87.199997,LOCKED,9,0.82,0.18,-0.05,-0.54
-0.17,0.32,-0.190964,1005.809692,0.045905,0.011006,0.062227,49.2524070740,-123.2346420288,87.199997,LOCKED,9,0.82,0.18,-0.05,-0.54
-0.17,0.33,-0.190964,1005.809692,0.068665,-0.002416,0.101349,49.2524070740,-123.2346420288,87.199997,LOCKED,9,0.82,0.18,-0.05,-0.54
-0.16,0.34,-0.190964,1005.809692,0.021083,-0.000348,0.022216,49.2523880005,-123.2346954346,87.199997,LOCKED,9,0.82,0.18,-0.05,-0.54
-0.16,0.33,-0.207840,1005.811707,0.003691,-0.009295,-0.000557,49.2523880005,-123.2346954346,87.199997,LOCKED,9,0.82,0.18,-0.05,-0.54
-0.15,0.35,-0.207840,1005.811707,0.011150,0.007335,0.087433,49.2523880005,-123.2346954346,87.199997,LOCKED,9,0.82,0.18,-0.05,-0.54
-0.15,0.36,-0.180237,1005.808411,0.021197,-0.027194,0.081825,49.2523880005,-123.2346954346,87.199997,LOCKED,9,0.82,0.18,-0.04,-0.54
-0.14,0.34,-0.180237,1005.808411,0.041281,0.009575,-0.076951,49.2523880005,-123.2346954346,87.199997,LOCKED,9,0.82,0.18,-0.04,-0.54
-0.14,0.32,-0.153641,1005.805237,-0.012706,-0.011663,-0.109561,49.2523880005,-123.2346954346,87.199997,LOCKED,9,0.82,0.18,-0.04,-0.54
-0.13,0.32,-0.153641,1005.805237,-0.002631,0.031456,-0.012243,49.2523880005,-123.2346954346,87.199997,LOCKED,9,0.82,0.18,-0.05,-0.54
-0.13,0.32,-0.099442,1005.798767,0.003949,0.046581,-0.007673,49.2523880005,-123.2346954346,87.199997,LOCKED,9,0.82,0.18,-0.04,-0.54
-0.12,0.33,-0.099442,1005.798767,0.038548,-0.004751,0.035326,49.2523880005,-123.2346954346,87.199997,LOCKED,9,0.82,0.18,-0.04,-0.54
-0.12,0.32,-0.139832,1005.803589,0.007185,0.009047,-0.020906,49.2523880005,-123.2346954346,87.199997,LOCKED,9,0.82,0.18,-0.04,-0.54
-0.11,0.31,-0.139832,1005.803589,-0.007042,-0.031351,-0.031702,49.2523880005,-123.2346954346,87.199997,LOCKED,9,0.82,0.18,-0.04,-0.54
-0.11,0.29,-0.194031,1005.810059,-0.002973,0.032155,-0.086794,49.2523880005,-123.2346954346,87.199997,LOCKED,9,0.82,0.18,-0.04,-0.54
-0.11,0.30,-0.194031,1005.810059,-0.006339,0.021063,0.066523,49.2523880005,-123.2346954346,87.199997,LOCKED,9,0.82,0.18,-0.04,-0.54
-0.11,0.30,-0.194031,1005.810059,0.006110,0.022465,0.046807,49.2523880005,-123.2346954346,87.199997,LOCKED,9,0.82,0.18,-0.04,-0.54
-0.10,0.31,-0.194031,1005.810059,0.035709,0.002742,0.048080,49.2523880005,-123.2346954346,87.199997,LOCKED,9,0.82,0.17,-0.03,-0.54
-0.11,0.30,-0.305511,1005.823425,0.040562,0.022810,0.017665,49.2523880005,-123.2346954346,87.199997,LOCKED,9,0.82,0.17,-0.03,-0.54
-0.11,0.30,-0.305511,1005.823425,-0.011453,0.016605,0.041525,49.2523880005,-123.2346954346,87.199997,LOCKED,9,0.82,0.18,-0.03,-0.54
-0.11,0.29,-0.277893,1005.820129,0.022030,0.028197,0.045500,49.2523880005,-123.2346954346,87.199997,LOCKED,9,0.82,0.18,-0.03,-0.54
-0.12,0.30,-0.277893,1005.820129,0.047290,0.010590,0.098066,49.2523880005,-123.2346954346,87.199997,LOCKED,9,0.82,0.18,-0.03,-0.54
-0.12,0.31,-0.277893,1005.820129,-0.000366,0.004258,0.068111,49.2523880005,-123.2346954346,87.199997,LOCKED,9,0.82,0.17,-0.03,-0.54
-0.12,0.29,-0.277893,1005.820129,0.000690,0.004542,-0.014817,49.2523880005,-123.2346954346,87.199997,LOCKED,9,0.82,0.17,-0.03,-0.54
-0.12,0.29,-0.251312,1005.816956,0.005480,0.005619,0.038322,49.2523880005,-123.2346954346,87.199997,LOCKED,9,0.82,0.18,-0.03,-0.54
-0.12,0.31,-0.251312,1005.816956,0.018925,0.020665,0.144588,49.2523880005,-123.2346954346,87.199997,LOCKED,9,0.82,0.17,-0.03,-0.54
-0.12,0.31,-0.224213,1005.813660,0.041127,0.000570,0.005605,49.2523880005,-123.2346954346,87.199997,LOCKED,9,0.82,0.17,-0.03,-0.54
-0.12,0.29,-0.224213,1005.813660,0.029840,0.008742,-0.052404,49.2523880005,-123.2346954346,87.199997,LOCKED,9,0.82,0.18,-0.03,-0.54
-0.12,0.29,-0.240570,1005.815613,0.004961,0.015586,0.026803,49.2523880005,-123.2346954346,87.199997,LOCKED,9,0.82,0.18,-0.04,-0.54
-0.12,0.27,-0.240570,1005.815613,0.000952,0.058539,-0.063758,49.2523880005,-123.2346954346,87.199997,LOCKED,9,0.82,0.18,-0.03,-0.54
-0.12,0.26,-0.253860,1005.817261,0.016243,0.005016,-0.020417,49.2523880005,-123.2346954346,87.199997,LOCKED,9,0.82,0.18,-0.03,-0.54
-0.12,0.25,-0.253860,1005.817261,-0.001726,0.011018,-0.010045,49.2523880005,-123.2346954346,87.199997,LOCKED,9,0.82,0.18,-0.03,-0.54
-0.12,0.24,-0.159271,1005.805908,-0.004535,-0.001867,-0.028031,49.2523880005,-123.2346954346,87.199997,LOCKED,9,0.82,0.18,-0.03,-0.54
-0.12,0.24,-0.159271,1005.805908,0.001597,0.026867,-0.028398,49.2523880005,-123.2346954346,87.199997,LOCKED,9,0.82,0.18,-0.04,-0.54
-0.11,0.24,-0.146484,1005.804382,0.002522,0.017017,0.040017,49.2523880005,-123.2346954346,87.199997,LOCKED,9,0.82,0.18,-0.04,-0.54
-0.11,0.25,-0.146484,1005.804382,0.010186,0.023253,0.065476,49.2523880005,-123.2346954346,87.199997,LOCKED,9,0.82,0.18,-0.03,-0.54
-0.11,0.25,-0.159271,1005.805908,0.002016,-0.007114,0.009488,49.2523880005,-123.2346954346,87.199997,LOCKED,9,0.82,0.18,-0.03,-0.54
-0.11,0.25,-0.159271,1005.805908,-0.013182,-0.009129,0.028693,49.2523880005,-123.2346954346,87.199997,LOCKED,9,0.82,0.18,-0.04,-0.54
-0.10,0.26,-0.091263,1005.797791,-0.002844,0.016262,0.045690,49.2523880005,-123.2346954346,87.199997,LOCKED,9,0.82,0.18,-0.04,-0.54
-0.10,0.27,-0.091263,1005.797791,0.043859,0.028583,0.027855,49.2523651123,-123.2347259521,85.199997,LOCKED,9,0.82,0.18,-0.04,-0.54
-0.09,0.28,-0.064667,1005.794556,0.044583,0.006778,0.072633,49.2523651123,-123.2347259521,85.199997,LOCKED,9,0.82,0.18,-0.04,-0.54
-0.08,0.30,-0.064667,1005.794556,0.025846,0.006420,0.103381,49.2523651123,-123.2347259521,85.199997,LOCKED,9,0.82,0.18,-0.04,-0.54
-0.08,0.30,-0.038086,1005.791382,0.002592,0.025842,-0.013839,49.2523651123,-123.2347259521,85.199997,LOCKED,9,0.82,0.18,-0.04,-0.54
-0.07,0.30,-0.038086,1005.791382,-0.019585,0.031974,-0.025761,49.2523651123,-123.2347259521,85.199997,LOCKED,9,0.82,0.18,-0.04,-0.54
-0.06,0.31,0.019196,1005.784546,-0.008683,0.019390,0.045640,49.2523651123,-123.2347259521,85.199997,LOCKED,9,0.82,0.18,-0.04,-0.54
-0.05,0.31,0.019196,1005.784546,-0.011206,0.102938,-0.031816,49.2523651123,-123.2347259521,85.199997,LOCKED,9,0.82,0.18,-0.03,-0.54
-0.04,0.32,0.019196,1005.784546,0.013689,0.001562,0.077044,49.2523651123,-123.2347259521,85.199997,LOCKED,9,0.82,0.18,-0.03,-0.54
-0.04,0.33,0.002823,1005.786499,0.005715,0.020154,-0.007291,49.2523651123,-123.2347259521,85.199997,LOCKED,9,0.83,0.18,-0.03,-0.54
-0.03,0.32,0.002823,1005.786499,-0.054652,0.003022,-0.057781,49.2523651123,-123.2347259521,85.199997,LOCKED,9,0.83,0.18,-0.03,-0.53
-0.02,0.32,0.024307,1005.783936,-0.039505,0.041540,-0.011609,49.2523651123,-123.2347259521,85.199997,LOCKED,9,0.83,0.18,-0.03,-0.53
-0.01,0.34,0.024307,1005.783936,-0.009284,-0.003238,0.085009,49.2523651123,-123.2347259521,85.199997,LOCKED,9,0.83,0.18,-0.03,-0.54
-0.00,0.36,0.097931,1005.775146,0.015811,0.012590,0.095340,49.2523651123,-123.2347259521,85.199997,LOCKED,9,0.83,0.18,-0.02,-0.54
0.01,0.36,0.097931,1005.775146,0.020826,0.012876,-0.002759,49.2523651123,-123.2347259521,85.199997,LOCKED,9,0.83,0.17,-0.02,-0.53
0.02,0.36,0.097931,1005.775146,-0.036908,0.005570,-0.029581,49.2523651123,-123.2347259521,85.199997,LOCKED,9,0.83,0.18,-0.02,-0.53
0.03,0.38,0.097931,1005.775146,0.016466,0.019024,0.086440,49.2523651123,-123.2347259521,85.199997,LOCKED,9,0.83,0.18,-0.02,-0.53
0.04,0.40,0.051407,1005.780701,0.024011,-0.019921,0.089368,49.2523651123,-123.2347259521,85.199997,LOCKED,9,0.83,0.18,-0.02,-0.53
0.04,0.41,0.051407,1005.780701,0.015663,-0.022280,0.069332,49.2523651123,-123.2347259521,85.199997,LOCKED,9,0.83,0.17,-0.02,-0.53
0.05,0.42,0.051407,1005.780701,0.017532,0.001475,0.028844,49.2523651123,-123.2347259521,85.199997,LOCKED,9,0.83,0.17,-0.02,-0.53
0.06,0.42,0.051407,1005.780701,0.009472,-0.003679,0.008040,49.2523651123,-123.2347259521,85.199997,LOCKED,9,0.83,0.18,-0.02,-0.53
0.06,0.43,0.024307,1005.783936,0.002717,0.014101,0.070822,49.2523651123,-123.2347259521,85.199997,LOCKED,9,0.83,0.18,-0.02,-0.53
0.07,0.44,0.024307,1005.783936,0.002320,-0.005694,0.069763,49.2523651123,-123.2347259521,85.199997,LOCKED,9,0.83,0.18,-0.02,-0.53
0.08,0.44,0.037598,1005.782349,0.023424,-0.006507,0.007457,49.2523651123,-123.2347259521,85.199997,LOCKED,9,0.83,0.17,-0.02,-0.53
0.08,0.42,0.037598,1005.782349,-0.021758,-0.015128,-0.057381,49.2523651123,-123.2347259521,85.199997,LOCKED,9,0.83,0.18,-0.02,-0.53
0.09,0.42,0.051407,1005.780701,-0.034769,0.004939,-0.031046,49.2523651123,-123.2347259521,85.199997,LOCKED,9,0.83,0.18,-0.02,-0.53
0.09,0.41,0.051407,1005.780701,0.003316,-0.002628,0.000372,49.2523651123,-123.2347259521,85.199997,LOCKED,9,0.83,0.18,-0.02,-0.53
0.10,0.42,0.024307,1005.783936,0.042655,-0.000460,0.038354,49.2523651123,-123.2347259521,85.199997,LOCKED,9,0.83,0.18,-0.02,-0.53
0.10,0.41,0.024307,1005.783936,-0.001896,0.004774,-0.012673,49.2523651123,-123.2347259521,85.199997,LOCKED,9,0.83,0.18,-0.03,-0.53
0.11,0.40,0.024307,1005.783936,-0.038163,0.003120,-0.041719,49.2523651123,-123.2347259521,85.199997,LOCKED,9,0.83,0.18,-0.03,-0.53
0.11,0.39,0.024307,1005.783936,-0.009254,-0.001968,-0.036186,49.2523651123,-123.2347259521,85.199997,LOCKED,9,0.83,0.18,-0.03,-0.53
0.11,0.38,0.011002,1005.785522,-0.002266,0.024251,-0.000478,49.2523651123,-123.2347259521,85.199997,LOCKED,9,0.83,0.19,-0.03,-0.53
0.11,0.38,0.011002,1005.785522,-0.008982,0.006448,0.033875,49.2523651123,-123.2347259521,85.199997,LOCKED,9,0.83,0.19,-0.03,-0.53
0.11,0.37,-0.002792,1005.787170,0.026814,0.008561,-0.023589,49.2523651123,-123.2347259521,85.199997,LOCKED,9,0.83,0.19,-0.03,-0.53
0.12,0.36,-0.002792,1005.787170,-0.017995,-0.009580,-0.028112,49.2523651123,-123.2347259521,85.199997,LOCKED,9,0.83,0.19,-0.04,-0.53
0.12,0.37,0.011002,1005.785522,-0.019245,0.006376,0.080756,49.2523651123,-123.2347259521,85.199997,LOCKED,9,0.83,0.19,-0.04,-0.53
0.12,0.36,0.011002,1005.785522,0.020146,-0.012166,0.000429,49.2523651123,-123.2347259521,85.199997,LOCKED,9,0.83,0.19,-0.04,-0.53
0.12,0.36,-0.113754,1005.800476,0.003303,-0.007362,0.069481,49.2523651123,-123.2347259521,85.199997,LOCKED,9,0.83,0.19,-0.04,-0.53
0.11,0.37,-0.113754,1005.800476,0.016505,-0.012682,0.123525,49.2523651123,-123.2347259521,85.199997,LOCKED,9,0.83,0.19,-0.04,-0.53
0.11,0.36,-0.100464,1005.798889,0.018811,-0.010047,-0.007692,49.2523651123,-123.2347259521,85.199997,LOCKED,9,0.83,0.19,-0.03,-0.53
0.11,0.35,-0.100464,1005.798889,0.004908,0.010189,0.029192,49.2523651123,-123.2347259521,85.199997,LOCKED,9,0.83,0.19,-0.04,-0.53
0.10,0.36,-0.100464,1005.798889,0.006851,-0.008796,0.121430,49.2523651123,-123.2347259521,85.199997,LOCKED,9,0.83,0.19,-0.03,-0.53
0.10,0.35,-0.100464,1005.798889,0.024442,-0.025753,0.031217,49.2523651123,-123.2347259521,85.199997,LOCKED,9,0.83,0.19,-0.03,-0.53
0.10,0.34,-0.060577,1005.794067,-0.012879,-0.003980,0.003477,49.2523651123,-123.2347259521,85.199997,LOCKED,9,0.83,0.19,-0.03,-0.53
0.10,0.35,-0.060577,1005.794067,-0.009676,-0.012614,0.070794,49.2523651123,-123.2347259521,85.199997,LOCKED,9,0.83,0.19,-0.03,-0.53
0.10,0.35,0.011002,1005.785522,0.009813,-0.005313,0.020259,49.2523651123,-123.2347259521,85.199997,LOCKED,9,0.83,0.19,-0.03,-0.53
0.10,0.35,0.011002,1005.785522,0.011122,0.000634,0.035969,49.2523651123,-123.2347259521,85.199997,LOCKED,9,0.83,0.19,-0.03,-0.52
0.11,0.35,0.024307,1005.783936,-0.000665,-0.009654,0.019061,49.2523651123,-123.2347259521,85.199997,LOCKED,9,0.83,0.19,-0.03,-0.52
0.11,0.33,0.024307,1005.783936,-0.026477,0.015650,-0.040024,49.2523651123,-123.2347259521,85.199997,LOCKED,9,0.83,0.19,-0.03,-0.52
0.11,0.33,0.092819,1005.775757,-0.003278,-0.003964,-0.034380,49.2523651123,-123.2347259521,85.199997,LOCKED,9,0.83,0.19,-0.03,-0.52
0.12,0.33,0.092819,1005.775757,-0.013148,0.005583,0.040902,49.2523651123,-123.2347259521,85.199997,LOCKED,9,0.83,0.18,-0.02,-0.52
0.13,0.34,0.205826,1005.762207,-0.006793,-0.001026,0.003787,49.2523651123,-123.2347259521,85.199997,LOCKED,9,0.83,0.18,-0.02,-0.52
0.14,0.33,0.205826,1005.762207,-0.015406,-0.004022,-0.063723,49.2523651123,-123.2347259521,85.199997,LOCKED,9,0.83,0.19,-0.02,-0.52
0.14,0.33,0.145996,1005.760559,-0.027334,0.011464,0.004595,49.2523651123,-123.2347259521,85.199997,LOCKED,9,0.83,0.19,-0.03,-0.52
0.15,0.35,0.145996,1005.769348,-0.013793,0.010922,0.095545,49.2523651123,-123.2347259521,85.199997,LOCKED,9,0.83,0.19,-0.03,-0.52
0.15,0.35,0.145996,1005.769348,0.037345,0.024536,0.024626,49.2523651123,-123.2347259521,85.199997,LOCKED,9,0.83,0.19,-0.02,-0.52
0.16,0.35,0.159302,1005.767761,0.003297,-0.014869,-0.039208,49.2523651123,-123.2347259521,85.199997,LOCKED,9,0.83,0.19,-0.03,-0.52
0.17,0.34,0.159302,1005.767761,-0.048117,0.006469,-0.009528,49.2523651123,-123.2347259521,85.199997,LOCKED,9,0.83,0.19,-0.03,-0.52
0.17,0.34,0.062653,1005.779358,-0.000179,0.009179,0.007619,49.2523651123,-123.2347259521,85.199997,LOCKED,9,0.83,0.19,-0.03,-0.52
0.17,0.35,0.062653,1005.779358,0.035690,0.018611,0.094331,49.2523651123,-123.2347259521,85.199997,LOCKED,9,0.83,0.19,-0.03,-0.52
0.17,0.36,0.035034,1005.782654,-0.005094,-0.011030,0.112667,49.2523651123,-123.2347259521,85.199997,LOCKED,9,0.83,0.19,-0.03,-0.52
0.17,0.36,0.035034,1005.782654,-0.012930,-0.014385,0.044270,49.2523651123,-123.2347259521,85.199997,LOCKED,9,0.83,0.19,-0.02,-0.52
0.17,0.36,0.007431,1005.785950,0.012434,0.014831,0.017281,49.2523651123,-123.2347259521,85.199997,LOCKED,9,0.83,0.19,-0.03,-0.52
0.17,0.36,0.007431,1005.785950,-0.006898,-0.007536,0.090315,49.2523651123,-123.2347259521,85.199997,LOCKED,9,0.83,0.19,-0.03,-0.52
0.17,0.37,0.035034,1005.782654,0.008882,-0.001161,0.077588,49.2523651123,-123.2347259521,85.199997,LOCKED,9,0.83,0.19,-0.03,-0.52
0.17,0.37,0.035034,1005.782654,0.003862,0.006345,0.025686,49.2523651123,-123.2347259521,85.199997,LOCKED,9,0.83,0.19,-0.02,-0.52
0.17,0.37,0.062653,1005.779358,-0.004937,-0.015847,0.076756,49.2523651123,-123.2347259521,85.199997,LOCKED,9,0.83,0.19,-0.02,-0.52
0.17,0.37,0.062653,1005.779358,-0.014854,-0.015650,0.012403,49.2523651123,-123.2347259521,85.199997,LOCKED,9,0.83,0.19,-0.02,-0.52
0.18,0.36,0.088730,1005.776245,-0.014914,0.005509,-0.028897,49.2523651123,-123.2347259521,85.199997,LOCKED,9,0.83,0.19,-0.02,-0.52
0.18,0.37,0.088730,1005.776245,0.004547,-0.010752,0.084452,49.2523651123,-123.2347259521,85.199997,LOCKED,9,0.83,0.19,-0.02,-0.52
0.18,0.38,0.156235,1005.768127,-0.007506,-0.018961,0.079427,49.2523651123,-123.2347259521,85.199997,LOCKED,9,0.83,0.19,-0.02,-0.52
0.19,0.37,0.156235,1005.768127,0.017112,0.004469,-0.040218,49.2523651123,-123.2347259521,85.199997,LOCKED,9,0.83,0.19,-0.02,-0.52
0.19,0.36,0.142929,1005.769714,-0.024187,-0.013499,-0.044330,49.2523651123,-123.2347259521,85.199997,LOCKED,9,0.83,0.19,-0.02,-0.52
0.20,0.36,0.142929,1005.769714,-0.026501,-0.021072,0.019125,49.2523651123,-123.2347259521,85.199997,LOCKED,9,0.83,0.19,-0.02,-0.52
0.20,0.36,0.142929,1005.769714,-0.033891,-0.025172,0.018432,49.2523651123,-123.2347259521,85.199997,LOCKED,9,0.83,0.19,-0.02,-0.52
0.21,0.36,0.142929,1005.769714,0.000687,-0.014746,-0.010016,49.2523651123,-123.2347259521,85.199997,LOCKED,9,0.84,0.19,-0.02,-0.52
0.21,0.34,0.142929,1005.769714,-0.013271,-0.027275,-0.055823,49.2523651123,-123.2347259521,85.199997,LOCKED,9,0.84,0.19,-0.02,-0.52
0.21,0.32,0.142929,1005.769714,-0.051468,-0.024454,-0.093617,49.2523651123,-123.2347259521,85.199997,LOCKED,9,0.84,0.19,-0.02,-0.52
0.21,0.31,0.142929,1005.769714,-0.030921,-0.004080,-0.024029,49.2523651123,-123.2347259521,85.199997,LOCKED,9,0.84,0.19,-0.02,-0.52
0.22,0.32,0.142929,1005.769714,-0.008080,-0.005343,0.076395,49.2523651123,-123.2347259521,85.199997,LOCKED,9,0.84,0.19,-0.02,-0.52
0.22,0.33,0.103043,1005.774536,0.005701,-0.038264,0.102817,49.2523651123,-123.2347259521,85.199997,LOCKED,9,0.84,0.18,-0.02,-0.51
0.22,0.32,0.103043,1005.774536,0.005368,-0.007414,-0.043304,49.2523651123,-123.2347259521,85.199997,LOCKED,9,0.84,0.18,-0.01,-0.51
0.22,0.29,0.115829,1005.772949,-0.045065,-0.093833,-0.114341,49.2523651123,-123.2347259521,85.199997,LOCKED,9,0.84,0.19,-0.02,-0.51
0.22,0.28,0.115829,1005.772949,-0.053110,0.017133,-0.026585,49.2523651123,-123.2347259521,85.199997,LOCKED,9,0.84,0.19,-0.02,-0.51
0.22,0.29,0.018173,1005.784668,-0.016172,-0.020073,0.077595,49.2523651123,-123.2347259521,85.199997,LOCKED,9,0.84,0.19,-0.02,-0.51
0.21,0.29,0.018173,1005.784668,0.001415,-0.028285,0.100716,49.2523040771,-123.2348098755,85.199997,LOCKED,9,0.84,0.18,-0.01,-0.51
0.21,0.29,0.004868,1005.786255,0.004541,-0.020201,0.028435,49.2523040771,-123.2348098755,85.199997,LOCKED,9,0.84,0.18,-0.01,-0.51
0.20,0.28,0.004868,1005.786255,-0.057299,-0.052000,0.010422,49.2523040771,-123.2348098755,85.199997,LOCKED,9,0.84,0.18,-0.01,-0.51
0.21,0.27,0.115829,1005.772949,-0.049169,0.017777,-0.016686,49.2523040771,-123.2348098755,85.199997,LOCKED,9,0.84,0.19,-0.01,-0.51
0.21,0.28,0.115829,1005.772949,-0.020647,-0.015816,0.093086,49.2523040771,-123.2348098755,85.199997,LOCKED,9,0.84,0.19,-0.01,-0.51
0.20,0.30,0.004868,1005.786255,0.016200,-0.010034,0.151310,49.2523040771,-123.2348098755,85.199997,LOCKED,9,0.84,0.18,-0.01,-0.51
0.20,0.30,0.004868,1005.786255,0.003308,-0.052101,0.095872,49.2523040771,-123.2348098755,85.199997,LOCKED,9,0.84,0.18,-0.01,-0.51
0.20,0.30,0.088730,1005.776245,-0.003101,-0.006088,0.019324,49.2523040771,-123.2348098755,85.199997,LOCKED,9,0.84,0.18,-0.01,-0.51
0.20,0.31,0.088730,1005.776245,-0.033040,-0.034574,0.098887,49.2523040771,-123.2348098755,85.199997,LOCKED,9,0.84,0.19,-0.01,-0.51
0.20,0.33,0.170547,1005.766418,0.018468,0.005352,0.101932,49.2523040771,-123.2348098755,85.199997,LOCKED,9,0.84,0.19,-0.01,-0.51
0.21,0.34,0.170547,1005.766418,0.073134,-0.016286,0.072522,49.2523040771,-123.2348098755,85.199997,LOCKED,9,0.84,0.19,-0.01,-0.51
0.21,0.34,0.139862,1005.770081,0.020789,-0.045791,0.042623,49.2523040771,-123.2348098755,85.199997,LOCKED,9,0.84,0.19,-0.02,-0.51
0.21,0.33,0.139862,1005.770081,-0.041500,-0.048209,-0.016969,49.2523040771,-123.2348098755,85.199997,LOCKED,9,0.84,0.19,-0.01,-0.51
0.22,0.33,0.224243,1005.760010,-0.014350,-0.012749,-0.002806,49.2523040771,-123.2348098755,85.199997,LOCKED,9,0.84,0.19,-0.01,-0.51
0.23,0.34,0.224243,1005.760010,0.015177,-0.002738,0.029109,49.2523040771,-123.2348098755,85.199997,LOCKED,9,0.84,0.19,-0.01,-0.51
0.23,0.33,0.139862,1005.770081,0.007133,-0.031428,-0.011051,49.2523040771,-123.2348098755,85.199997,LOCKED,9,0.84,0.19,-0.01,-0.51
0.23,0.32,0.139862,1005.770081,-0.031678,-0.025707,-0.063478,49.2523040771,-123.2348098755,85.199997,LOCKED,9,0.84,0.19,-0.01,-0.51
0.23,0.30,0.139862,1005.770081,-0.048792,-0.016619,-0.032299,49.2523040771,-123.2348098755,85.199997,LOCKED,9,0.84,0.19,-0.01,-0.51
0.24,0.30,0.207870,1005.761963,-0.026985,-0.020630,-0.019327,49.2523040771,-123.2348098755,85.199997,LOCKED,9,0.84,0.19,-0.02,-0.51
0.24,0.29,0.207870,1005.761963,-0.008101,-0.029794,-0.026727,49.2523040771,-123.2348098755,85.199997,LOCKED,9,0.84,0.19,-0.02,-0.51
0.24,0.29,0.194077,1005.763611,-0.018336,-0.028888,-0.014409,49.2523040771,-123.2348098755,85.199997,LOCKED,9,0.84,0.19,-0.02,-0.51
0.25,0.29,0.194077,1005.763611,-0.013814,-0.005669,0.034738,49.2523040771,-123.2348098755,85.199997,LOCKED,9,0.84,0.19,-0.02,-0.51
0.24,0.28,0.083618,1005.776855,0.015528,-0.029168,0.016543,49.2523040771,-123.2348098755,85.199997,LOCKED,9,0.84,0.19,-0.02,-0.51
0.24,0.27,0.083618,1005.776855,-0.051433,-0.020314,-0.046505,49.2523040771,-123.2348098755,85.199997,LOCKED,9,0.84,0.20,-0.02,-0.51
0.24,0.26,0.069809,1005.778503,-0.068085,-0.018771,0.007266,49.2522850037,-123.2348480225,85.199997,LOCKED,9,0.84,0.20,-0.02,-0.51
0.24,0.26,0.069809,1005.778503,0.006966,-0.025797,0.049472,49.2522850037,-123.2348480225,85.199997,LOCKED,9,0.84,0.20,-0.02,-0.51
0.23,0.26,0.028900,1005.783386,0.049778,-0.025056,0.089441,49.2522850037,-123.2348480225,85.199997,LOCKED,9,0.84,0.19,-0.02,-0.51
0.23,0.26,0.028900,1005.783386,-0.011507,-0.048725,0.050330,49.2522850037,-123.2348480225,85.199997,LOCKED,9,0.84,0.20,-0.02,-0.51
0.22,0.25,0.015610,1005.784973,-0.053398,-0.044282,0.004558,49.2522850037,-123.2348480225,85.199997,LOCKED,9,0.84,0.20,-0.02,-0.51
0.22,0.26,0.015610,1005.784973,0.020563,-0.030020,0.134405,49.2522850037,-123.2348480225,85.199997,LOCKED,9,0.84,0.20,-0.02,-0.51
0.21,0.27,-0.042175,1005.791870,0.049126,-0.032711,0.141529,49.2522850037,-123.2348480225,85.199997,LOCKED,9,0.84,0.20,-0.02,-0.51
0.20,0.26,-0.042175,1005.791870,0.002123,-0.048616,0.007487,49.2522850037,-123.2348480225,85.199997,LOCKED,9,0.84,0.20,-0.02,-0.51
0.20,0.24,-0.001770,1005.787048,-0.059390,-0.040197,-0.019781,49.2522850037,-123.2348480225,85.199997,LOCKED,9,0.84,0.20,-0.03,-0.51
0.20,0.26,-0.001770,1005.787048,-0.004808,-0.044670,0.126272,49.2522850037,-123.2348480225,85.199997,LOCKED,9,0.84,0.20,-0.02,-0.51
0.19,0.26,0.066238,1005.778931,0.010094,-0.038434,0.058994,49.2522850037,-123.2348480225,85.199997,LOCKED,9,0.84,0.19,-0.02,-0.51
0.19,0.25,0.066238,1005.778931,-0.012593,-0.036948,-0.038910,49.2522850037,-123.2348480225,85.199997,LOCKED,9,0.84,0.19,-0.02,-0.51
0.19,0.22,-0.006882,1005.787659,-0.047400,-0.051530,-0.052688,49.2522850037,-123.2348480225,85.199997,LOCKED,9,0.84,0.19,-0.02,-0.51
0.18,0.21,-0.006882,1005.787659,-0.024556,-0.025214,0.006275,49.2522850037,-123.2348480225,85.199997,LOCKED,9,0.84,0.20,-0.02,-0.51
0.18,0.21,0.047318,1005.781189,0.012025,-0.041191,0.042102,49.2522850037,-123.2348480225,85.199997,LOCKED,9,0.84,0.19,-0.02,-0.51
0.18,0.20,0.047318,1005.781189,-0.009874,-0.031573,-0.047949,49.2522850037,-123.2348480225,85.199997,LOCKED,9,0.84,0.19,-0.02,-0.51
0.18,0.18,0.061127,1005.779541,-0.031839,-0.031304,-0.087188,49.2522850037,-123.2348480225,85.199997,LOCKED,9,0.84,0.20,-0.02,-0.51
0.18,0.16,0.061127,1005.779541,-0.036766,-0.013892,-0.044895,49.2522850037,-123.2348480225,85.199997,LOCKED,9,0.84,0.20,-0.02,-0.51
0.17,0.16,0.087204,1005.776428,0.007362,-0.024822,0.039708,49.2522850037,-123.2348480225,85.199997,LOCKED,9,0.84,0.20,-0.02,-0.51
0.17,0.16,0.087204,1005.776428,0.013111,-0.025174,-0.015636,49.2522850037,-123.2348480225,85.199997,LOCKED,9,0.84,0.20,-0.02,-0.51
0.17,0.15,0.087204,1005.776428,-0.022981,-0.029596,-0.029619,49.2522850037,-123.2348480225,85.199997,LOCKED,9,0.83,0.20,-0.02,-0.51
0.17,0.15,0.087204,1005.776428,-0.033716,-0.021546,0.024841,49.2522850037,-123.2348480225,85.199997,LOCKED,9,0.83,0.20,-0.02,-0.51
0.17,0.15,0.074417,1005.777954,-0.008741,-0.019416,0.065697,49.2522850037,-123.2348480225,85.199997,LOCKED,9,0.83,0.20,-0.02,-0.51
0.17,0.16,0.074417,1005.777954,0.029506,-0.002012,0.072190,49.2522850037,-123.2348480225,85.199997,LOCKED,9,0.83,0.20,-0.02,-0.51
0.17,0.16,0.061127,1005.779541,-0.001598,-0.038017,0.055325,49.2522850037,-123.2348480225,83.300003,LOCKED,9,0.83,0.20,-0.02,-0.51
0.16,0.17,0.061127,1005.779541,-0.004852,-0.028423,0.079057,49.2522850037,-123.2348480225,83.300003,LOCKED,9,0.83,0.20,-0.02,-0.52
0.16,0.18,0.061127,1005.779541,0.027445,-0.035329,0.102884,49.2522850037,-123.2348480225,83.300003,LOCKED,9,0.83,0.20,-0.02,-0.52
0.16,0.19,0.061127,1005.779541,0.015842,-0.038908,0.081846,49.2522850037,-123.2348480225,83.300003,LOCKED,9,0.83,0.20,-0.02,-0.52
0.16,0.20,0.074417,1005.777954,-0.010677,-0.037593,0.057161,49.2522850037,-123.2348480225,83.300003,LOCKED,9,0.83,0.20,-0.02,-0.52
0.16,0.20,0.074417,1005.777954,0.003644,-0.040828,0.058642,49.2522850037,-123.2348480225,83.300003,LOCKED,9,0.83,0.20,-0.02,-0.52
0.16,0.22,0.128113,1005.771484,0.020250,-0.026958,0.074508,49.2522850037,-123.2348480225,83.300003,LOCKED,9,0.83,0.20,-0.02,-0.52
0.17,0.22,0.128113,1005.771484,0.022111,-0.037405,0.046864,49.2522850037,-123.2348480225,83.300003,LOCKED,9,0.83,0.20,-0.02,-0.52
0.17,0.22,0.114304,1005.773132,0.005127,-0.030797,-0.014046,49.2522850037,-123.2348480225,83.300003,LOCKED,9,0.83,0.20,-0.02,-0.52
0.17,0.21,0.114304,1005.773132,-0.013490,-0.034096,-0.003183,49.2522850037,-123.2348480225,83.300003,LOCKED,9,0.83,0.20,-0.02,-0.52
0.18,0.23,0.242645,1005.757813,-0.023810,-0.021730,0.056303,49.2522850037,-123.2348480225,83.300003,LOCKED,9,0.83,0.20,-0.02,-0.52
0.18,0.23,0.242645,1005.757813,0.016965,-0.051057,0.014948,49.2522850037,-123.2348480225,83.300003,LOCKED,9,0.83,0.20,-0.02,-0.52
0.19,0.22,0.242645,1005.757813,-0.010997,-0.035991,-0.079770,49.2522583008,-123.2348861694,83.300003,LOCKED,9,0.83,0.20,-0.02,-0.52
0.20,0.22,0.242645,1005.757813,-0.013069,-0.038448,-0.048584,49.2522583008,-123.2348861694,83.300003,LOCKED,9,0.83,0.20,-0.02,-0.52
0.20,0.20,0.169525,1005.757813,-0.039630,-0.030292,-0.070956,49.2522583008,-123.2348861694,83.300003,LOCKED,9,0.83,0.20,-0.02,-0.52
0.20,0.20,0.169525,1005.766541,0.016725,-0.019112,-0.008847,49.2522583008,-123.2348861694,83.300003,LOCKED,9,0.83,0.20,-0.02,-0.52
0.20,0.20,0.169525,1005.766541,0.011408,-0.046334,-0.001070,49.2522583008,-123.2348861694,83.300003,LOCKED,9,0.83,0.20,-0.02,-0.52
0.20,0.18,0.087204,1005.776428,-0.032466,-0.034850,-0.034343,49.2522583008,-123.2348861694,83.300003,LOCKED,9,0.83,0.20,-0.02,-0.52
0.20,0.17,0.087204,1005.776428,-0.016715,-0.036378,-0.028522,49.2522583008,-123.2348861694,83.300003,LOCKED,9,0.83,0.20,-0.02,-0.52
0.20,0.17,0.114304,1005.773132,-0.008164,-0.038087,0.031921,49.2522583008,-123.2348861694,83.300003,LOCKED,9,0.83,0.20,-0.02,-0.52
0.20,0.17,0.114304,1005.773132,-0.013320,-0.030887,0.035164,49.2522583008,-123.2348861694,83.300003,LOCKED,9,0.83,0.20,-0.02,-0.52
0.20,0.17,0.114304,1005.773132,-0.024394,-0.045440,0.008139,49.2522583008,-123.2348861694,83.300003,LOCKED,9,0.83,0.20,-0.02,-0.52
0.20,0.18,0.114304,1005.773132,0.008915,-0.060315,0.073420,49.2522583008,-123.2348861694,83.300003,LOCKED,9,0.83,0.20,-0.02,-0.52
0.20,0.19,0.128113,1005.771484,0.017423,-0.025857,0.104373,49.2522583008,-123.2348861694,83.300003,LOCKED,9,0.83,0.20,-0.02,-0.52
0.20,0.20,0.128113,1005.771484,-0.004767,-0.038391,0.076056,49.2522583008,-123.2348861694,83.300003,LOCKED,9,0.83,0.20,-0.02,-0.52
0.20,0.21,0.128113,1005.771484,-0.007120,-0.048843,0.035463,49.2522583008,-123.2348861694,83.300003,LOCKED,9,0.83,0.20,-0.02,-0.52
0.20,0.22,0.128113,1005.771484,-0.004852,-0.050638,0.094686,49.2522583008,-123.2348861694,83.300003,LOCKED,9,0.83,0.20,-0.02,-0.52
0.20,0.23,0.114304,1005.773132,-0.004446,-0.048272,0.079204,49.2522583008,-123.2348861694,83.300003,LOCKED,9,0.83,0.20,-0.02,-0.52
0.20,0.23,0.114304,1005.773132,0.007836,-0.041585,0.041173,49.2522583008,-123.2348861694,83.300003,LOCKED,9,0.83,0.20,-0.02,-0.52
0.20,0.23,0.087204,1005.776428,0.033709,-0.051947,0.047666,49.2522583008,-123.2348861694,83.300003,LOCKED,9,0.83,0.20,-0.02,-0.52
0.20,0.23,0.087204,1005.776428,-0.016787,-0.040933,0.024308,49.2522583008,-123.2348861694,83.300003,LOCKED,9,0.83,0.20,-0.02,-0.52
0.20,0.23,0.071854,1005.778259,-0.021336,-0.034727,0.028370,49.2522583008,-123.2348861694,83.300003,LOCKED,9,0.83,0.20,-0.02,-0.52
0.19,0.23,0.071854,1005.778259,0.011289,-0.065089,0.057051,49.2522583008,-123.2348861694,83.300003,LOCKED,9,0.83,0.20,-0.02,-0.52
0.19,0.22,0.044250,1005.781555,0.026928,-0.032574,0.004084,49.2522583008,-123.2348861694,83.300003,LOCKED,9,0.83,0.20,-0.02,-0.52
0.19,0.20,0.044250,1005.781555,-0.056394,-0.030478,-0.085156,49.2522583008,-123.2348861694,83.300003,LOCKED,9,0.83,0.20,-0.02,-0.52
0.19,0.18,0.084641,1005.776733,-0.027906,-0.024224,-0.086069,49.2522583008,-123.2348861694,83.300003,LOCKED,9,0.83,0.20,-0.02,-0.52
0.19,0.18,0.084641,1005.776733,0.006742,-0.030043,0.046886,49.2522506714,-123.2348861694,83.300003,LOCKED,9,0.83,0.20,-0.02,-0.52
0.18,0.18,0.014069,1005.785156,0.016789,-0.039505,0.028564,49.2522506714,-123.2348861694,83.300003,LOCKED,9,0.83,0.20,-0.02,-0.52
0.18,0.16,0.014069,1005.785156,-0.024503,-0.037612,-0.070207,49.2522506714,-123.2348861694,83.300003,LOCKED,9,0.83,0.20,-0.02,-0.52
0.17,0.15,0.027878,1005.783508,-0.003505,-0.024331,-0.001446,49.2522506714,-123.2348861694,83.300003,LOCKED,9,0.83,0.20,-0.02,-0.52
0.17,0.14,0.027878,1005.783508,0.015637,-0.038934,0.013548,49.2522506714,-123.2348861694,83.300003,LOCKED,9,0.83,0.20,-0.02,-0.51
0.17,0.14,0.014069,1005.785156,-0.005375,-0.019151,0.015796,49.2522506714,-123.2348861694,83.300003,LOCKED,9,0.83,0.20,-0.02,-0.51
0.16,0.14,0.014069,1005.785156,0.030082,-0.036369,0.067884,49.2522506714,-123.2348861694,83.300003,LOCKED,9,0.83,0.20,-0.02,-0.52
0.15,0.14,-0.096878,1005.798462,0.006081,-0.034036,0.101064,49.2522506714,-123.2348861694,83.300003,LOCKED,9,0.83,0.20,-0.02,-0.52
0.14,0.15,-0.096878,1005.798462,0.009101,-0.060823,0.110898,49.2522506714,-123.2348861694,83.300003,LOCKED,9,0.83,0.20,-0.02,-0.51
0.14,0.14,-0.070801,1005.795288,0.038456,0.024370,0.019775,49.2522506714,-123.2348861694,83.300003,LOCKED,9,0.83,0.20,-0.02,-0.51
0.13,0.14,-0.070801,1005.795288,-0.008889,-0.059183,0.076835,49.2522506714,-123.2348861694,83.300003,LOCKED,9,0.83,0.20,-0.02,-0.51
0.12,0.15,-0.086151,1005.797180,0.000215,-0.024299,0.093110,49.2522506714,-123.2348861694,83.300003,LOCKED,9,0.83,0.20,-0.02,-0.51
0.12,0.16,-0.086151,1005.797180,0.037921,-0.020991,0.112190,49.2522506714,-123.2348861694,83.300003,LOCKED,9,0.83,0.20,-0.02,-0.51
0.11,0.16,-0.032974,1005.790771,0.017567,-0.039501,0.049971,49.2522506714,-123.2348861694,83.300003,LOCKED,9,0.83,0.20,-0.02,-0.51
0.11,0.15,-0.032974,1005.790771,0.005629,-0.036994,-0.000107,49.2522506714,-123.2348861694,83.300003,LOCKED,9,0.83,0.20,-0.02,-0.51
0.11,0.14,0.051910,1005.780640,-0.006647,-0.031021,-0.008837,49.2522506714,-123.2348861694,83.300003,LOCKED,9,0.83,0.20,-0.02,-0.51
0.11,0.15,0.051910,1005.780640,-0.004462,-0.017019,0.034826,49.2522506714,-123.2348861694,83.300003,LOCKED,9,0.83,0.20,-0.02,-0.51
0.11,0.15,-0.046265,1005.792358,0.029058,-0.042864,0.053525,49.2522506714,-123.2348861694,83.300003,LOCKED,9,0.83,0.20,-0.02,-0.51
0.10,0.14,-0.046265,1005.792358,0.011812,-0.048041,-0.014797,49.2522506714,-123.2348861694,83.300003,LOCKED,9,0.83,0.20,-0.02,-0.51
0.10,0.12,0.051910,1005.780640,-0.007003,-0.042472,-0.081627,49.2522506714,-123.2348861694,83.300003,LOCKED,9,0.83,0.20,-0.02,-0.51
0.10,0.10,0.051910,1005.780640,-0.024546,-0.016008,-0.089883,49.2522506714,-123.2348861694,83.300003,LOCKED,9,0.83,0.20,-0.02,-0.51
0.10,0.09,0.051910,1005.780640,0.002541,-0.030478,-0.020166,49.2522506714,-123.2348861694,83.300003,LOCKED,9,0.83,0.20,-0.02,-0.51
0.10,0.09,0.051910,1005.780640,0.020243,-0.050422,0.015214,49.2522506714,-123.2348861694,83.300003,LOCKED,9,0.83,0.20,-0.02,-0.51
0.10,0.09,0.092819,1005.775757,-0.003334,-0.053115,-0.035616,49.2522506714,-123.2348861694,83.300003,LOCKED,9,0.84,0.20,-0.01,-0.51
0.10,0.08,0.092819,1005.775757,-0.031060,-0.034616,-0.051361,49.2522506714,-123.2348861694,83.300003,LOCKED,9,0.83,0.20,-0.01,-0.51
0.10,0.08,0.065216,1005.775757,-0.003895,-0.037235,0.008961,49.2522506714,-123.2348861694,83.300003,LOCKED,9,0.83,0.20,-0.01,-0.51
0.10,0.08,0.065216,1005.779053,0.011384,-0.033740,0.019279,49.2522506714,-123.2348861694,83.300003,LOCKED,9,0.83,0.20,-0.01,-0.51
0.10,0.09,0.132706,1005.779053,0.001263,-0.042316,0.040947,49.2522506714,-123.2348861694,83.300003,LOCKED,9,0.84,0.20,-0.01,-0.51
0.11,0.09,0.132706,1005.770935,0.004160,-0.061169,0.019474,49.2522506714,-123.2348861694,83.300003,LOCKED,9,0.84,0.20,-0.01,-0.51
0.11,0.10,0.132706,1005.770935,0.026673,-0.071690,0.055795,49.2522506714,-123.2348861694,83.300003,LOCKED,9,0.84,0.20,-0.02,-0.51
0.11,0.12,0.075439,1005.777832,0.008285,-0.051379,0.081437,49.2522506714,-123.2348861694,83.300003,LOCKED,9,0.84,0.20,-0.02,-0.51
0.11,0.13,0.075439,1005.777832,0.010556,-0.048138,0.107944,49.2522506714,-123.2348861694,83.300003,LOCKED,9,0.84,0.20,-0.01,-0.51
0.11,0.14,0.021744,1005.784241,0.029999,-0.062969,0.061380,49.2522506714,-123.2348861694,83.300003,LOCKED,9,0.84,0.20,-0.01,-0.51
0.11,0.14,0.021744,1005.784241,-0.002736,-0.058025,0.060667,49.2522506714,-123.2348861694,83.300003,LOCKED,9,0.84,0.20,-0.01,-0.51
0.11,0.15,0.049362,1005.780945,-0.002133,-0.046875,0.053684,49.2522506714,-123.2348861694,83.300003,LOCKED,9,0.84,0.20,-0.01,-0.51
0.11,0.16,0.049362,1005.780945,0.020930,-0.048083,0.062312,49.2522506714,-123.2348861694,83.300003,LOCKED,9,0.84,0.20,-0.01,-0.51
0.11,0.17,0.049362,1005.780945,0.023545,-0.050363,0.064379,49.2522315979,-123.2348937988,83.300003,LOCKED,9,0.84,0.20,-0.01,-0.51
0.11,0.17,0.049362,1005.780945,-0.000938,-0.048296,0.023461,49.2522315979,-123.2348937988,83.300003,LOCKED,9,0.84,0.20,-0.01,-0.51
0.11,0.16,0.035034,1005.782654,-0.004635,-0.043551,-0.005620,49.2522315979,-123.2348937988,83.300003,LOCKED,9,0.84,0.20,-0.01,-0.51
0.11,0.16,0.035034,1005.782654,0.013777,-0.040765,0.002158,49.2522315979,-123.2348937988,83.300003,LOCKED,9,0.84,0.20,-0.01,-0.51
0.11,0.15,0.004868,1005.786255,0.002285,-0.047407,-0.031099,49.2522315979,-123.2348937988,83.300003,LOCKED,9,0.84,0.20,-0.01,-0.51
0.10,0.14,0.004868,1005.786255,-0.012765,-0.050334,-0.028414,49.2522315979,-123.2348937988,83.300003,LOCKED,9,0.84,0.20,-0.01,-0.51
0.10,0.12,-0.068253,1005.794983,0.002844,-0.061825,-0.016509,49.2522315979,-123.2348937988,83.300003,LOCKED,9,0.84,0.20,-0.01,-0.51
0.09,0.11,-0.068253,1005.794983,0.001904,-0.014276,-0.023762,49.2522315979,-123.2348937988,83.300003,LOCKED,9,0.84,0.20,-0.01,-0.51
0.08,0.09,-0.165909,1005.806702,0.002256,-0.024122,-0.056427,49.2522315979,-123.2348937988,83.300003,LOCKED,9,0.84,0.20,-0.00,-0.51
0.07,0.06,-0.165909,1005.806702,-0.014471,-0.036179,-0.090995,49.2522315979,-123.2348937988,83.300003,LOCKED,9,0.84,0.20,-0.01,-0.51
0.06,0.04,-0.193527,1005.809998,-0.029088,-0.023560,0.000604,49.2522315979,-123.2348937988,83.300003,LOCKED,9,0.84,0.20,-0.01,-0.51
0.05,0.04,-0.193527,1005.809998,0.009863,-0.036267,0.043041,49.2522315979,-123.2348937988,83.300003,LOCKED,9,0.84,0.20,-0.00,-0.51
0.04,0.03,-0.176651,1005.807983,0.012646,-0.054702,0.019861,49.2522315979,-123.2348937988,83.300003,LOCKED,9,0.84,0.19,-0.00,-0.51
0.03,0.02,-0.176651,1005.807983,0.025870,-0.021081,0.042588,49.2522315979,-123.2348937988,83.300003,LOCKED,9,0.84,0.19,-0.00,-0.51
0.03,0.02,-0.125519,1005.801880,-0.019306,-0.048086,0.062806,49.2522315979,-123.2348937988,83.300003,LOCKED,9,0.84,0.19,-0.00,-0.51
0.02,0.03,-0.125519,1005.801880,0.005876,-0.052725,0.053547,49.2522315979,-123.2348937988,83.300003,LOCKED,9,0.84,0.19,-0.00,-0.51
0.02,0.04,-0.068253,1005.794983,0.028439,-0.046621,0.096919,49.2522315979,-123.2348937988,83.300003,LOCKED,9,0.84,0.19,-0.00,-0.51
0.02,0.05,-0.068253,1005.794983,0.019312,-0.047187,0.117493,49.2522315979,-123.2348937988,83.300003,LOCKED,9,0.84,0.19,-0.00,-0.51
0.01,0.07,-0.125519,1005.801880,0.036851,-0.042418,0.107233,49.2522315979,-123.2348937988,83.300003,LOCKED,9,0.84,0.19,-0.00,-0.51
0.01,0.08,-0.125519,1005.801880,0.034972,-0.055858,0.102728,49.2522315979,-123.2348937988,83.300003,LOCKED,9,0.84,0.19,-0.00,-0.51
0.00,0.09,-0.097900,1005.798584,-0.004394,-0.042533,0.118350,49.2522315979,-123.2348937988,83.300003,LOCKED,9,0.84,0.19,-0.00,-0.51
0.00,0.10,-0.097900,1005.798584,-0.001727,-0.029184,0.088127,49.2522315979,-123.2348937988,83.300003,LOCKED,9,0.84,0.19,0.00,-0.51
-0.00,0.11,-0.085129,1005.797058,0.030417,-0.035120,0.068671,49.2522315979,-123.2348937988,83.300003,LOCKED,9,0.84,0.19,0.00,-0.51
-0.00,0.12,-0.085129,1005.797058,0.048279,-0.034171,0.060447,49.2522315979,-123.2348937988,83.300003,LOCKED,9,0.84,0.19,-0.00,-0.51
-0.00,0.12,-0.044724,1005.792175,-0.001695,-0.046319,0.031055,49.2522315979,-123.2348937988,83.300003,LOCKED,9,0.84,0.20,-0.00,-0.51
-0.00,0.12,-0.044724,1005.792175,-0.002226,-0.030017,0.020762,49.2522315979,-123.2348937988,83.300003,LOCKED,9,0.84,0.20,-0.00,-0.51
-0.00,0.13,-0.030930,1005.790527,0.044164,-0.039532,0.070013,49.2522315979,-123.2348937988,83.300003,LOCKED,9,0.84,0.20,-0.00,-0.51
-0.00,0.12,-0.030930,1005.790527,0.015604,-0.047015,-0.028972,49.2522315979,-123.2348937988,83.300003,LOCKED,9,0.84,0.19,-0.00,-0.51
0.00,0.11,-0.003815,1005.787292,-0.032321,-0.024221,-0.078028,49.2522315979,-123.2348937988,83.300003,LOCKED,9,0.84,0.20,-0.00,-0.51
0.00,0.11,-0.003815,1005.787292,-0.012572,-0.028857,-0.008185,49.2522315979,-123.2348937988,83.300003,LOCKED,9,0.84,0.20,-0.00,-0.51
0.01,0.11,0.053452,1005.780457,0.018305,-0.061103,0.013970,49.2522315979,-123.2348937988,83.300003,LOCKED,9,0.84,0.20,-0.00,-0.51
0.01,0.10,0.053452,1005.780457,0.000895,-0.052399,-0.084979,49.2522315979,-123.2348937988,83.300003,LOCKED,9,0.84,0.20,-0.00,-0.50
0.01,0.08,-0.000244,1005.786865,-0.017845,-0.009289,-0.112842,49.2522315979,-123.2348937988,83.300003,LOCKED,9,0.84,0.20,-0.00,-0.50
0.01,0.07,-0.000244,1005.786865,0.008987,-0.014380,-0.074425,49.2522315979,-123.2348937988,83.300003,LOCKED,9,0.84,0.20,-0.01,-0.50
0.01,0.06,-0.068253,1005.794983,0.026929,-0.040979,0.011549,49.2522315979,-123.2348937988,83.300003,LOCKED,9,0.84,0.20,-0.01,-0.50
0.01,0.06,-0.068253,1005.794983,0.015851,-0.033638,0.003955,49.2522315979,-123.2348937988,83.300003,LOCKED,9,0.84,0.20,-0.01,-0.50
0.01,0.05,-0.068253,1005.794983,-0.002509,-0.049944,-0.032616,49.2522315979,-123.2348937988,83.300003,LOCKED,9,0.84,0.20,-0.01,-0.50
0.00,0.05,-0.095352,1005.798279,0.003370,-0.049055,0.048155,49.2522315979,-123.2348937988,83.300003,LOCKED,9,0.84,0.20,-0.01,-0.50
-0.00,0.07,-0.095352,1005.798279,0.034176,-0.090572,0.140300,49.2522315979,-123.2348937988,83.300003,LOCKED,9,0.84,0.20,-0.01,-0.50
-0.01,0.07,-0.176651,1005.807983,0.034426,-0.056380,0.051142,49.2522315979,-123.2348937988,83.300003,LOCKED,9,0.84,0.20,-0.01,-0.50
-0.01,0.07,-0.176651,1005.807983,0.090627,-0.049386,0.067700,49.2522315979,-123.2348937988,83.300003,LOCKED,9,0.84,0.20,-0.01,-0.50
-0.02,0.07,-0.143921,1005.804077,-0.022767,-0.093141,0.041142,49.2522315979,-123.2348937988,83.300003,LOCKED,9,0.84,0.20,-0.01,-0.50
-0.02,0.08,-0.143921,1005.804077,-0.011839,-0.049116,0.092831,49.2522315979,-123.2348937988,83.300003,LOCKED,9,0.84,0.20,-0.01,-0.50
-0.03,0.11,-0.171539,1005.807373,0.037356,-0.092446,0.180615,49.2522315979,-123.2348937988,83.300003,LOCKED,9,0.84,0.19,-0.01,-0.50
-0.03,0.11,-0.171539,1005.807373,0.092848,-0.036469,0.072535,49.2522315979,-123.2348937988,83.300003,LOCKED,9,0.84,0.19,-0.01,-0.50
-0.04,0.10,-0.157730,1005.805725,-0.006229,-0.091751,-0.008601,49.2522315979,-123.2348937988,83.300003,LOCKED,9,0.84,0.19,-0.01,-0.50
-0.04,0.10,-0.157730,1005.805725,-0.035180,-0.026017,-0.006985,49.2522315979,-123.2348937988,83.300003,LOCKED,9,0.84,0.20,-0.00,-0.50
-0.04,0.10,-0.100464,1005.798889,0.020815,-0.042764,0.047487,49.2522315979,-123.2348937988,83.300003,LOCKED,9,0.84,0.19,-0.00,-0.50
-0.04,0.10,-0.100464,1005.798889,0.017067,-0.048659,0.003512,49.2522163391,-123.2349014282,83.300003,LOCKED,9,0.84,0.19,0.00,-0.50
-0.04,0.08,-0.126541,1005.802002,-0.020061,-0.053450,-0.067761,49.2522163391,-123.2349014282,83.300003,LOCKED,9,0.85,0.19,0.00,-0.50
-0.05,0.06,-0.126541,1005.802002,-0.022871,-0.062478,-0.070828,49.2522163391,-123.2349014282,83.300003,LOCKED,9,0.85,0.19,0.00,-0.50
-0.05,0.06,-0.100464,1005.798889,-0.016826,-0.038806,-0.007671,49.2522163391,-123.2349014282,83.300003,LOCKED,9,0.85,0.19,0.01,-0.50
-0.05,0.06,-0.100464,1005.798889,-0.020300,-0.043860,0.005122,49.2522163391,-123.2349014282,83.300003,LOCKED,9,0.85,0.19,0.01,-0.50
-0.05,0.04,-0.111206,1005.800171,0.023282,-0.043152,-0.059099,49.2522163391,-123.2349014282,83.300003,LOCKED,9,0.85,0.18,0.01,-0.50
-0.05,0.03,-0.111206,1005.800171,0.004751,-0.060228,-0.043108,49.2522163391,-123.2349014282,83.300003,LOCKED,9,0.85,0.18,0.01,-0.50
-0.05,0.02,-0.111206,1005.800171,-0.001910,-0.065299,-0.027455,49.2522163391,-123.2349014282,83.300003,LOCKED,9,0.85,0.19,0.01,-0.50
-0.06,0.01,-0.111206,1005.800171,-0.019398,-0.049846,-0.041541,49.2522163391,-123.2349014282,83.300003,LOCKED,9,0.85,0.19,0.01,-0.50
-0.06,0.02,-0.175629,1005.807861,-0.010205,-0.072949,0.072286,49.2522163391,-123.2349014282,83.300003,LOCKED,9,0.85,0.18,0.01,-0.50
-0.07,0.04,-0.175629,1005.807861,0.020138,-0.080686,0.115701,49.2522163391,-123.2349014282,83.300003,LOCKED,9,0.85,0.18,0.02,-0.50
-0.07,0.04,-0.132172,1005.802673,0.055713,-0.059819,0.064143,49.2522163391,-123.2349014282,83.300003,LOCKED,9,0.85,0.18,0.02,-0.50
-0.07,0.05,-0.132172,1005.802673,0.014999,-0.066242,0.076664,49.2522163391,-123.2349014282,83.300003,LOCKED,9,0.85,0.18,0.02,-0.49
-0.07,0.05,-0.118362,1005.801025,0.012363,-0.027277,0.017354,49.2522163391,-123.2349014282,83.300003,LOCKED,9,0.85,0.18,0.01,-0.49
-0.07,0.07,-0.118362,1005.801025,-0.000287,-0.019660,0.088652,49.2522163391,-123.2349014282,83.300003,LOCKED,9,0.85,0.19,0.01,-0.49
-0.07,0.09,-0.132172,1005.802673,0.079272,-0.015212,0.159417,49.2522163391,-123.2349014282,83.300003,LOCKED,9,0.85,0.18,0.02,-0.49
-0.07,0.10,-0.132172,1005.802673,0.044240,-0.061204,0.092117,49.2522163391,-123.2349014282,83.300003,LOCKED,9,0.85,0.18,0.02,-0.49
-0.08,0.11,-0.158752,1005.805847,0.014578,-0.073216,0.037984,49.2522163391,-123.2349014282,83.300003,LOCKED,9,0.85,0.18,0.02,-0.49
-0.08,0.11,-0.158752,1005.805847,0.008168,-0.037247,0.033136,49.2522163391,-123.2349014282,83.300003,LOCKED,9,0.85,0.19,0.02,-0.49
-0.08,0.12,-0.212952,1005.812317,0.027842,-0.025192,0.095704,49.2522163391,-123.2349014282,83.300003,LOCKED,9,0.85,0.19,0.01,-0.49
-0.08,0.13,-0.212952,1005.812317,0.078349,-0.026548,0.136106,49.2522163391,-123.2349014282,83.300003,LOCKED,9,0.85,0.19,0.01,-0.49
-0.09,0.14,-0.212952,1005.812317,0.083082,-0.049147,0.078751,49.2522163391,-123.2349014282,83.300003,LOCKED,9,0.85,0.18,0.01,-0.49
-0.09,0.13,-0.212952,1005.812317,0.050385,-0.045042,-0.029398,49.2522163391,-123.2349014282,83.300003,LOCKED,9,0.85,0.19,0.01,-0.49
-0.09,0.12,-0.114777,1005.800598,0.009060,-0.040317,-0.060839,49.2522163391,-123.2349014282,83.300003,LOCKED,9,0.85,0.19,0.01,-0.49
GPS update failed, maybe no data in buffer? or wrong Pin connection (RX-TX)
-0.09,0.11,-0.114777,1005.800598,-0.011626,-0.036618,-0.022241,49.2522163391,-123.2349014282,83.300003,LOCKED,9,0.85,0.19,0.01,-0.49
-0.09,0.12,-0.253357,1005.817200,0.044739,-0.028487,0.112697,49.2522163391,-123.2349014282,83.300003,LOCKED,9,0.85,0.19,0.01,-0.49
-0.10,0.14,-0.253357,1005.817200,0.045519,-0.081463,0.142113,49.2522163391,-123.2349014282,83.300003,LOCKED,9,0.85,0.19,0.02,-0.49
-0.10,0.13,-0.196594,1005.810364,0.031134,-0.042709,-0.004823,49.2522163391,-123.2349014282,83.300003,LOCKED,9,0.85,0.18,0.02,-0.49
-0.10,0.11,-0.196594,1005.810364,-0.006053,-0.034434,-0.074653,49.2522163391,-123.2349014282,83.300003,LOCKED,9,0.85,0.19,0.02,-0.49
-0.10,0.10,-0.183304,1005.808777,0.007781,-0.017340,-0.066799,49.2522163391,-123.2349014282,83.300003,LOCKED,9,0.85,0.19,0.01,-0.49
-0.11,0.09,-0.183304,1005.808777,0.015080,0.003978,-0.046686,49.2522163391,-123.2349014282,83.300003,LOCKED,9,0.85,0.20,0.01,-0.49
-0.10,0.09,-0.095352,1005.798279,0.058548,-0.022869,0.034824,49.2522163391,-123.2349014282,83.300003,LOCKED,9,0.85,0.20,0.01,-0.49
-0.10,0.10,-0.095352,1005.798279,0.047123,-0.062802,0.027549,49.2522163391,-123.2349014282,83.300003,LOCKED,9,0.85,0.19,0.01,-0.49
-0.10,0.09,-0.055466,1005.793457,-0.007749,-0.079275,-0.053374,49.2522163391,-123.2349014282,83.300003,LOCKED,9,0.85,0.19,0.01,-0.49
-0.10,0.07,-0.055466,1005.793457,-0.015861,-0.030164,-0.105039,49.2522163391,-123.2349014282,83.300003,LOCKED,9,0.85,0.20,0.01,-0.49
-0.09,0.06,-0.082062,1005.793457,-0.005444,-0.028770,-0.065477,49.2522163391,-123.2349014282,83.300003,LOCKED,9,0.85,0.20,0.01,-0.49
-0.09,0.07,-0.082062,1005.796692,0.036256,-0.051806,0.021968,49.2522163391,-123.2349014282,83.300003,LOCKED,9,0.85,0.20,0.01,-0.49
-0.09,0.07,-0.082062,1005.796692,0.024383,-0.049672,0.023932,49.2522163391,-123.2349014282,83.300003,LOCKED,9,0.85,0.20,0.01,-0.49
-0.09,0.08,-0.136765,1005.803223,0.035459,-0.059308,0.036598,49.2522163391,-123.2349014282,83.300003,LOCKED,9,0.85,0.19,0.01,-0.49
-0.09,0.08,-0.136765,1005.803223,0.030331,-0.060564,0.039607,49.2522163391,-123.2349014282,83.300003,LOCKED,9,0.85,0.19,0.01,-0.49
-0.09,0.09,-0.190964,1005.809692,0.037849,-0.060315,0.083759,49.2522163391,-123.2349014282,83.300003,LOCKED,9,0.85,0.19,0.01,-0.49
-0.10,0.09,-0.190964,1005.809692,0.029076,-0.032941,0.048369,49.2522163391,-123.2349014282,83.300003,LOCKED,9,0.85,0.19,0.01,-0.49
-0.10,0.09,-0.251312,1005.816895,0.012321,-0.026173,0.007213,49.2522163391,-123.2349014282,83.300003,LOCKED,9,0.85,0.19,0.01,-0.49
-0.11,0.08,-0.251312,1005.816895,0.014401,-0.035189,-0.005897,49.2522163391,-123.2349014282,83.300003,LOCKED,9,0.85,0.19,0.01,-0.49
-0.11,0.08,-0.095352,1005.798279,0.019946,-0.047822,0.020614,49.2522163391,-123.2349014282,83.300003,LOCKED,9,0.85,0.19,0.01,-0.49
-0.10,0.09,-0.095352,1005.798279,0.020609,-0.059218,0.038188,49.2522163391,-123.2349014282,83.300003,LOCKED,9,0.85,0.19,0.01,-0.49
-0.10,0.10,-0.082062,1005.796692,0.002266,-0.090674,0.045437,49.2522163391,-123.2349014282,83.300003,LOCKED,9,0.85,0.19,0.01,-0.49
-0.10,0.10,-0.082062,1005.796692,0.004661,-0.095284,0.027821,49.2522163391,-123.2349014282,83.300003,LOCKED,9,0.85,0.19,0.02,-0.49
-0.09,0.11,-0.042175,1005.791870,0.020579,-0.086335,-0.002199,49.2522163391,-123.2349014282,83.300003,LOCKED,9,0.85,0.19,0.02,-0.49
-0.09,0.11,-0.042175,1005.791870,-0.002352,-0.088767,-0.007781,49.2522163391,-123.2349014282,83.300003,LOCKED,9,0.85,0.19,0.02,-0.49
-0.08,0.11,-0.001770,1005.787048,0.010173,-0.074570,-0.035895,49.2522163391,-123.2349014282,83.300003,LOCKED,9,0.85,0.19,0.02,-0.49
-0.08,0.10,-0.001770,1005.787048,0.014633,-0.071288,-0.071375,49.2522163391,-123.2349014282,83.300003,LOCKED,9,0.85,0.19,0.02,-0.49
-0.07,0.10,0.012024,1005.785400,-0.005477,-0.099077,-0.020766,49.2522163391,-123.2349014282,83.300003,LOCKED,9,0.85,0.19,0.02,-0.49
-0.07,0.11,0.012024,1005.785400,-0.028527,-0.074766,0.029507,49.2522163391,-123.2349014282,83.300003,LOCKED,9,0.85,0.18,0.02,-0.49
-0.07,0.12,-0.142395,1005.803894,0.026733,-0.082093,0.065028,49.2522163391,-123.2349014282,83.300003,LOCKED,9,0.85,0.18,0.03,-0.49
-0.07,0.12,-0.142395,1005.803894,0.061100,-0.043301,0.026637,49.2522163391,-123.2349014282,83.300003,LOCKED,9,0.86,0.18,0.03,-0.48
-0.07,0.10,-0.183304,1005.808777,-0.034336,-0.052283,-0.032876,49.2522163391,-123.2349014282,83.300003,LOCKED,9,0.86,0.18,0.03,-0.48
-0.08,0.09,-0.183304,1005.808777,-0.045637,-0.039932,-0.019342,49.2522163391,-123.2349014282,83.300003,LOCKED,9,0.86,0.18,0.03,-0.48
-0.08,0.10,-0.196594,1005.810364,0.026048,-0.037643,0.067078,49.2522163391,-123.2349014282,83.300003,LOCKED,9,0.86,0.18,0.03,-0.48
-0.08,0.11,-0.196594,1005.810364,0.054252,-0.044592,0.071094,49.2522163391,-123.2349014282,83.300003,LOCKED,9,0.86,0.18,0.03,-0.48
-0.08,0.10,-0.163864,1005.806458,0.011596,-0.042718,-0.017686,49.2522163391,-123.2349014282,83.300003,LOCKED,9,0.86,0.18,0.03,-0.48
-0.09,0.09,-0.163864,1005.806458,0.015504,-0.048687,-0.000013,49.2522163391,-123.2349014282,83.300003,LOCKED,9,0.86,0.19,0.03,-0.48
-0.09,0.11,-0.163864,1005.806458,0.028351,-0.056595,0.088844,49.2522163391,-123.2349014282,83.300003,LOCKED,9,0.86,0.19,0.03,-0.48
-0.09,0.11,-0.163864,1005.806458,0.030274,-0.038959,0.072764,49.2522163391,-123.2349014282,83.300003,LOCKED,9,0.86,0.19,0.03,-0.48
-0.09,0.11,-0.163864,1005.806458,0.037635,-0.042622,-0.024732,49.2522163391,-123.2349014282,83.300003,LOCKED,9,0.86,0.19,0.03,-0.48
-0.09,0.10,-0.163864,1005.806458,0.038571,-0.034298,-0.020272,49.2522163391,-123.2349014282,83.300003,LOCKED,9,0.86,0.19,0.03,-0.48
-0.09,0.10,-0.150574,1005.804871,0.021955,-0.056003,0.014283,49.2522163391,-123.2349014282,83.300003,LOCKED,9,0.85,0.19,0.02,-0.48
-0.09,0.09,-0.150574,1005.804871,0.007815,-0.035496,-0.002894,49.2522163391,-123.2349014282,83.300003,LOCKED,9,0.85,0.19,0.02,-0.48
-0.10,0.09,-0.223694,1005.813599,0.022349,-0.044831,0.033550,49.2522163391,-123.2349014282,83.300003,LOCKED,9,0.85,0.19,0.02,-0.48
-0.10,0.09,-0.223694,1005.813599,0.040697,-0.054681,0.050275,49.2522163391,-123.2349014282,83.300003,LOCKED,9,0.86,0.19,0.02,-0.48
-0.11,0.08,-0.238007,1005.815308,0.016836,-0.056414,-0.033561,49.2522163391,-123.2349014282,83.300003,LOCKED,9,0.86,0.19,0.02,-0.48
-0.11,0.07,-0.238007,1005.815308,-0.009731,-0.053381,-0.041929,49.2522163391,-123.2349014282,83.300003,LOCKED,9,0.85,0.20,0.02,-0.48
-0.11,0.06,-0.196594,1005.810364,0.012851,-0.045687,0.009300,49.2522163391,-123.2349014282,83.300003,LOCKED,9,0.85,0.20,0.02,-0.48
-0.12,0.07,-0.196594,1005.810364,0.044071,-0.040917,0.048584,49.2522163391,-123.2349014282,83.300003,LOCKED,9,0.85,0.20,0.01,-0.48
-0.12,0.07,-0.128586,1005.802246,0.046506,-0.068942,0.022013,49.2522163391,-123.2349014282,83.300003,LOCKED,9,0.86,0.20,0.01,-0.48
-0.11,0.06,-0.128586,1005.802246,0.000462,-0.075627,-0.053351,49.2522163391,-123.2349014282,83.300003,LOCKED,9,0.85,0.20,0.01,-0.48
-0.11,0.06,-0.128586,1005.802246,0.010664,-0.061590,0.013169,49.2522163391,-123.2349014282,83.300003,LOCKED,9,0.85,0.20,0.01,-0.48
-0.11,0.07,-0.128586,1005.802246,0.048534,-0.042245,0.068357,49.2522163391,-123.2349014282,83.300003,LOCKED,9,0.85,0.20,0.01,-0.48
-0.12,0.08,-0.238007,1005.815308,0.025573,-0.066784,0.061193,49.2522163391,-123.2349014282,83.300003,LOCKED,9,0.86,0.20,0.01,-0.48
-0.12,0.08,-0.238007,1005.815308,0.045562,-0.077819,0.050559,49.2522163391,-123.2349014282,83.300003,LOCKED,9,0.86,0.20,0.01,-0.48
-0.13,0.08,-0.253357,1005.815308,0.028752,-0.062592,0.055609,49.2522163391,-123.2349014282,83.300003,LOCKED,9,0.86,0.20,0.01,-0.48
-0.13,0.09,-0.253357,1005.817200,0.011968,-0.064032,0.069789,49.2522163391,-123.2349014282,83.300003,LOCKED,9,0.86,0.20,0.01,-0.48
-0.13,0.08,-0.253357,1005.817200,0.020646,-0.050907,0.007267,49.2522163391,-123.2349014282,83.300003,LOCKED,9,0.86,0.20,0.01,-0.48
-0.14,0.08,-0.308060,1005.823730,0.005701,-0.065725,0.033140,49.2522163391,-123.2349014282,83.300003,LOCKED,9,0.86,0.20,0.01,-0.48
-0.15,0.08,-0.308060,1005.823730,0.008511,-0.064789,0.071206,49.2522163391,-123.2349014282,83.300003,LOCKED,9,0.86,0.20,0.02,-0.48
-0.15,0.09,-0.267151,1005.818848,0.038423,-0.075273,0.076312,49.2522163391,-123.2349014282,83.300003,LOCKED,9,0.86,0.20,0.02,-0.48
-0.15,0.08,-0.267151,1005.818848,0.009658,-0.069606,0.014033,49.2522163391,-123.2349014282,83.300003,LOCKED,9,0.86,0.20,0.02,-0.48
-0.16,0.08,-0.253357,1005.817200,0.001660,-0.070602,0.006043,49.2522163391,-123.2349014282,83.300003,LOCKED,9,0.86,0.20,0.02,-0.48
-0.16,0.08,-0.253357,1005.817200,0.039261,-0.050884,0.008818,49.2522163391,-123.2349014282,83.300003,LOCKED,9,0.86,0.20,0.02,-0.48
-0.17,0.07,-0.324432,1005.825684,0.035185,-0.057808,0.003974,49.2522163391,-123.2349014282,83.300003,LOCKED,9,0.86,0.20,0.02,-0.48
-0.17,0.05,-0.324432,1005.825684,-0.005376,-0.072190,-0.034552,49.2522163391,-123.2349014282,83.300003,LOCKED,9,0.86,0.20,0.02,-0.48
-0.18,0.04,-0.338226,1005.827332,0.020529,-0.068407,-0.028897,49.2522163391,-123.2349014282,83.300003,LOCKED,9,0.86,0.20,0.02,-0.48
-0.18,0.04,-0.338226,1005.827332,0.031259,-0.058595,0.036673,49.2522163391,-123.2349014282,83.300003,LOCKED,9,0.86,0.20,0.02,-0.48
-0.19,0.04,-0.338226,1005.827332,0.012946,-0.071145,0.039165,49.2522163391,-123.2349014282,83.300003,LOCKED,9,0.86,0.20,0.02,-0.47
-0.20,0.02,-0.338226,1005.827332,0.019575,-0.059858,-0.067059,49.2522163391,-123.2349014282,83.300003,LOCKED,9,0.86,0.20,0.02,-0.47
-0.20,-0.01,-0.338226,1005.827332,-0.005814,-0.053871,-0.077991,49.2522163391,-123.2349014282,83.300003,LOCKED,9,0.86,0.20,0.02,-0.47
-0.21,-0.00,-0.338226,1005.827332,0.008570,-0.043869,0.055061,49.2522163391,-123.2349014282,83.300003,LOCKED,9,0.86,0.20,0.02,-0.47
-0.21,0.00,-0.240570,1005.815613,0.055795,-0.059380,0.050467,49.2522163391,-123.2349014282,83.300003,LOCKED,9,0.86,0.20,0.02,-0.47
-0.21,-0.00,-0.240570,1005.815613,0.011504,-0.083189,-0.014726,49.2522163391,-123.2349014282,83.300003,LOCKED,9,0.86,0.20,0.02,-0.47
-0.21,-0.01,-0.253357,1005.817200,-0.018482,-0.055070,-0.037542,49.2522163391,-123.2349014282,83.300003,LOCKED,9,0.86,0.20,0.02,-0.47
-0.21,-0.02,-0.253357,1005.817200,0.001163,-0.043010,-0.023603,49.2522163391,-123.2349014282,83.300003,LOCKED,9,0.86,0.20,0.02,-0.47
-0.22,-0.01,-0.227783,1005.814087,0.040391,-0.037989,0.045864,49.2522163391,-123.2349014282,83.300003,LOCKED,9,0.86,0.20,0.02,-0.47
-0.22,0.02,-0.227783,1005.814087,0.035217,-0.052069,0.140365,49.2522163391,-123.2349014282,83.300003,LOCKED,9,0.86,0.20,0.02,-0.47
-0.21,0.03,-0.156204,1005.805542,0.031120,-0.076101,0.076066,49.2522163391,-123.2349014282,83.300003,LOCKED,9,0.86,0.20,0.02,-0.47
-0.21,0.04,-0.156204,1005.805542,0.011263,-0.062799,0.024536,49.2522163391,-123.2349014282,83.300003,LOCKED,9,0.86,0.20,0.02,-0.47
-0.21,0.05,-0.128586,1005.802246,0.003084,-0.058251,0.051749,49.2522163391,-123.2349014282,83.300003,LOCKED,9,0.86,0.20,0.02,-0.47
-0.20,0.06,-0.128586,1005.802246,0.011427,-0.040823,0.011330,49.2522163391,-123.2349014282,83.300003,LOCKED,9,0.86,0.20,0.02,-0.47
-0.20,0.08,-0.156204,1005.805542,0.062047,-0.040505,0.088000,49.2522163391,-123.2349014282,83.300003,LOCKED,9,0.86,0.20,0.02,-0.47
-0.19,0.11,-0.156204,1005.805542,0.080790,-0.056153,0.150670,49.2522163391,-123.2349014282,83.300003,LOCKED,9,0.86,0.20,0.02,-0.47
-0.19,0.12,-0.114777,1005.800598,0.021295,-0.062534,0.054260,49.2522163391,-123.2349014282,83.300003,LOCKED,9,0.86,0.20,0.02,-0.47
-0.18,0.12,-0.114777,1005.800598,0.012169,-0.041124,-0.013516,49.2522163391,-123.2349014282,83.300003,LOCKED,9,0.86,0.20,0.02,-0.47
-0.18,0.13,-0.128586,1005.802246,0.030030,-0.050812,0.009418,49.2522163391,-123.2349014282,83.300003,LOCKED,9,0.86,0.21,0.01,-0.47
-0.17,0.14,-0.128586,1005.802246,0.031200,-0.029453,0.040043,49.2522163391,-123.2349014282,83.300003,LOCKED,9,0.86,0.21,0.01,-0.47
-0.17,0.15,-0.136765,1005.803223,0.049161,-0.051682,0.065165,49.2522163391,-123.2349014282,83.300003,LOCKED,9,0.86,0.21,0.01,-0.47
-0.17,0.16,-0.136765,1005.803223,0.077963,-0.068184,0.047430,49.2522163391,-123.2349014282,83.300003,LOCKED,9,0.86,0.21,0.01,-0.47
-0.16,0.16,-0.163864,1005.806458,0.029392,-0.048171,-0.001814,49.2522163391,-123.2349014282,83.300003,LOCKED,9,0.86,0.21,0.01,-0.47
-0.16,0.14,-0.163864,1005.806458,0.027713,-0.046403,-0.097054,49.2522163391,-123.2349014282,83.300003,LOCKED,9,0.86,0.21,0.01,-0.47
-0.16,0.12,-0.204269,1005.811279,0.000516,-0.030108,-0.110973,49.2522163391,-123.2349014282,83.300003,LOCKED,9,0.86,0.22,0.00,-0.47
-0.16,0.13,-0.204269,1005.811279,0.042121,-0.044344,0.053825,49.2522163391,-123.2349014282,83.300003,LOCKED,9,0.86,0.22,0.00,-0.47
-0.16,0.14,-0.146988,1005.804443,0.061132,-0.072308,0.068739,49.2522163391,-123.2349014282,83.300003,LOCKED,9,0.86,0.22,-0.00,-0.47
-0.15,0.14,-0.146988,1005.804443,0.030082,-0.083066,-0.008755,49.2521400452,-123.2349853516,83.300003,LOCKED,9,0.86,0.22,-0.00,-0.47
-0.15,0.14,-0.103027,1005.799194,-0.014427,-0.083509,-0.014786,49.2521400452,-123.2349853516,83.300003,LOCKED,9,0.86,0.22,-0.00,-0.47
-0.15,0.15,-0.103027,1005.799194,0.009020,-0.050247,0.066508,49.2521400452,-123.2349853516,83.300003,LOCKED,9,0.86,0.22,0.00,-0.47
-0.14,0.17,-0.184830,1005.808960,0.055143,-0.081862,0.129604,49.2521400452,-123.2349853516,83.300003,LOCKED,9,0.86,0.22,0.00,-0.47
-0.14,0.18,-0.184830,1005.808960,0.054646,-0.099853,0.028864,49.2521400452,-123.2349853516,83.300003,LOCKED,9,0.86,0.21,0.00,-0.47
-0.14,0.17,-0.144440,1005.804138,0.015422,-0.052022,-0.048968,49.2521400452,-123.2349853516,83.300003,LOCKED,9,0.86,0.21,0.00,-0.46
-0.14,0.18,-0.144440,1005.804138,-0.011166,-0.088623,0.061850,49.2521400452,-123.2349853516,83.300003,LOCKED,9,0.86,0.22,0.00,-0.47
-0.14,0.21,-0.211929,1005.804138,0.091903,-0.045137,0.197860,49.2521400452,-123.2349853516,83.300003,LOCKED,9,0.86,0.21,0.01,-0.47
-0.14,0.23,-0.211929,1005.812195,0.055141,-0.110107,0.162399,49.2521400452,-123.2349853516,83.300003,LOCKED,9,0.86,0.21,0.01,-0.46
-0.14,0.21,-0.211929,1005.812195,0.054611,-0.015803,-0.106127,49.2521400452,-123.2349853516,83.300003,LOCKED,9,0.86,0.21,0.01,-0.46
-0.14,0.19,-0.242096,1005.815796,-0.049000,-0.076741,-0.105405,49.2521400452,-123.2349853516,83.300003,LOCKED,9,0.86,0.21,0.01,-0.46
-0.14,0.19,-0.242096,1005.815796,0.043464,-0.024725,0.036809,49.2521400452,-123.2349853516,83.300003,LOCKED,9,0.86,0.21,0.01,-0.46
-0.14,0.19,-0.225739,1005.813843,0.048732,-0.028943,0.058450,49.2521400452,-123.2349853516,83.300003,LOCKED,9,0.86,0.21,0.01,-0.46
-0.14,0.18,-0.225739,1005.813843,0.001253,-0.063236,-0.054446,49.2521400452,-123.2349853516,83.300003,LOCKED,9,0.86,0.20,0.02,-0.46
-0.14,0.16,-0.184830,1005.808960,0.004810,-0.033782,-0.081269,49.2521400452,-123.2349853516,83.300003,LOCKED,9,0.86,0.20,0.02,-0.46
-0.14,0.15,-0.184830,1005.808960,0.004776,-0.046507,-0.047230,49.2521400452,-123.2349853516,83.300003,LOCKED,9,0.86,0.20,0.02,-0.46
-0.14,0.12,-0.188416,1005.809387,-0.044928,-0.042127,-0.124189,49.2521400452,-123.2349853516,83.300003,LOCKED,9,0.86,0.20,0.02,-0.46
-0.14,0.10,-0.188416,1005.809387,-0.026690,-0.044353,-0.094946,49.2521400452,-123.2349853516,83.300003,LOCKED,9,0.86,0.20,0.02,-0.46
-0.14,0.09,-0.188416,1005.809387,0.011579,-0.079334,-0.079734,49.2521400452,-123.2349853516,83.300003,LOCKED,9,0.86,0.20,0.02,-0.46
-0.14,0.09,-0.188416,1005.809387,0.037316,-0.072042,0.014836,49.2521400452,-123.2349853516,83.300003,LOCKED,9,0.86,0.20,0.02,-0.46
-0.14,0.08,-0.116821,1005.800842,0.000151,-0.082378,-0.042542,49.2521400452,-123.2349853516,83.300003,LOCKED,9,0.86,0.20,0.03,-0.46
-0.13,0.06,-0.116821,1005.800842,-0.022768,-0.094377,-0.109660,49.2521400452,-123.2349853516,83.300003,LOCKED,9,0.86,0.19,0.03,-0.46
-0.13,0.06,-0.130630,1005.802490,-0.031993,-0.102515,-0.009737,49.2521400452,-123.2349853516,83.300003,LOCKED,9,0.86,0.19,0.03,-0.46
-0.13,0.08,-0.130630,1005.802490,-0.034131,-0.116950,0.122929,49.2521400452,-123.2349853516,83.300003,LOCKED,9,0.87,0.19,0.03,-0.46
-0.14,0.09,-0.266129,1005.818726,0.043403,-0.123442,0.097616,49.2521095276,-123.2350311279,83.300003,LOCKED,9,0.87,0.18,0.03,-0.46
-0.14,0.09,-0.266129,1005.818726,0.099128,-0.084359,0.049370,49.2521095276,-123.2350311279,83.300003,LOCKED,9,0.87,0.18,0.03,-0.46
-0.15,0.09,-0.307037,1005.823608,-0.026197,-0.095406,0.049891,49.2521095276,-123.2350311279,83.300003,LOCKED,9,0.87,0.19,0.03,-0.46
-0.15,0.09,-0.307037,1005.823608,-0.014915,-0.072269,0.055258,49.2521095276,-123.2350311279,83.300003,LOCKED,9,0.87,0.19,0.03,-0.46
-0.16,0.11,-0.307037,1005.823608,0.037137,-0.059687,0.109941,49.2521095276,-123.2350311279,83.300003,LOCKED,9,0.87,0.19,0.03,-0.46
-0.16,0.13,-0.307037,1005.823608,0.047845,-0.075269,0.202243,49.2521095276,-123.2350311279,83.300003,LOCKED,9,0.87,0.19,0.03,-0.46
-0.17,0.14,-0.417999,1005.836853,0.036231,-0.079391,0.129799,49.2521095276,-123.2350311279,83.300003,LOCKED,9,0.87,0.19,0.03,-0.46
-0.18,0.14,-0.417999,1005.836853,0.042885,-0.057587,0.081411,49.2521095276,-123.2350311279,83.300003,LOCKED,9,0.87,0.19,0.03,-0.46
-0.19,0.14,-0.431808,1005.838501,0.047692,-0.014137,0.081253,49.2521095276,-123.2350311279,83.300003,LOCKED,9,0.87,0.20,0.03,-0.46
-0.19,0.13,-0.431808,1005.838501,0.037439,-0.032244,0.012988,49.2521095276,-123.2350311279,83.300003,LOCKED,9,0.87,0.20,0.02,-0.46
-0.20,0.12,-0.323410,1005.825562,0.016788,-0.009602,-0.058514,49.2521095276,-123.2350311279,83.300003,LOCKED,9,0.86,0.21,0.02,-0.46
-0.20,0.12,-0.323410,1005.825562,0.034665,-0.043161,0.057662,49.2521095276,-123.2350311279,83.300003,LOCKED,9,0.86,0.21,0.01,-0.46
-0.20,0.13,-0.255402,1005.817444,0.091488,-0.031234,0.107723,49.2521095276,-123.2350311279,83.300003,LOCKED,9,0.86,0.21,0.01,-0.46
-0.20,0.13,-0.255402,1005.817444,0.072750,-0.039197,0.005304,49.2521095276,-123.2350311279,83.300003,LOCKED,9,0.86,0.21,0.01,-0.46
-0.20,0.12,-0.174606,1005.807739,0.013676,-0.024214,-0.091252,49.2521095276,-123.2350311279,83.300003,LOCKED,9,0.86,0.22,0.01,-0.46
-0.20,0.10,-0.174606,1005.807739,-0.014822,-0.009698,-0.104378,49.2521095276,-123.2350311279,83.300003,LOCKED,9,0.86,0.22,0.01,-0.46
-0.19,0.10,-0.063141,1005.794373,0.007948,0.000768,-0.026007,49.2521095276,-123.2350311279,83.300003,LOCKED,9,0.86,0.23,0.00,-0.46
-0.18,0.11,-0.063141,1005.794373,0.025253,-0.021865,0.025845,49.2521095276,-123.2350311279,83.300003,LOCKED,9,0.86,0.23,-0.00,-0.46
-0.18,0.13,-0.103027,1005.799194,0.041295,-0.024359,0.053055,49.2521095276,-123.2350311279,83.300003,LOCKED,9,0.86,0.23,-0.00,-0.45
-0.17,0.13,-0.103027,1005.799194,0.028113,-0.016873,-0.024399,49.2521095276,-123.2350311279,83.300003,LOCKED,9,0.86,0.23,-0.00,-0.46
-0.16,0.14,-0.008942,1005.787903,-0.008715,-0.038057,0.036544,49.2521095276,-123.2350311279,83.300003,LOCKED,9,0.86,0.23,-0.00,-0.46
-0.15,0.16,-0.008942,1005.787903,-0.028906,-0.017115,0.047307,49.2521095276,-123.2350311279,83.300003,LOCKED,9,0.86,0.23,-0.00,-0.46
-0.14,0.19,-0.035522,1005.791077,0.024639,-0.052036,0.120271,49.2521095276,-123.2350311279,83.300003,LOCKED,9,0.86,0.23,-0.00,-0.46
-0.14,0.21,-0.035522,1005.791077,0.048098,-0.006377,0.099475,49.2521095276,-123.2350311279,83.300003,LOCKED,9,0.86,0.22,0.00,-0.45
-0.12,0.23,0.031967,1005.783020,0.028724,0.032669,0.042250,49.2521095276,-123.2350311279,81.099998,LOCKED,9,0.86,0.22,0.00,-0.45
-0.11,0.24,0.031967,1005.783020,0.000808,-0.035854,0.055894,49.2521095276,-123.2350311279,81.099998,LOCKED,9,0.86,0.22,0.00,-0.45
-0.10,0.28,0.170547,1005.766418,-0.011954,-0.033150,0.114471,49.2521095276,-123.2350311279,81.099998,LOCKED,9,0.86,0.22,0.00,-0.45
-0.08,0.33,0.170547,1005.766418,0.002267,-0.066012,0.202069,49.2521095276,-123.2350311279,81.099998,LOCKED,9,0.86,0.22,0.00,-0.45
-0.06,0.37,0.153671,1005.768433,0.023237,-0.059898,0.160727,49.2521095276,-123.2350311279,81.099998,LOCKED,9,0.87,0.21,0.01,-0.45
-0.05,0.39,0.153671,1005.768433,0.104139,-0.039034,0.041809,49.2521095276,-123.2350311279,81.099998,LOCKED,9,0.87,0.21,0.01,-0.45
-0.03,0.40,0.139862,1005.768433,0.000758,-0.095940,-0.008636,49.2521095276,-123.2350311279,81.099998,LOCKED,9,0.87,0.21,0.01,-0.45
-0.02,0.41,0.139862,1005.770081,-0.006629,-0.000079,-0.002581,49.2521095276,-123.2350311279,81.099998,LOCKED,9,0.87,0.22,0.00,-0.45
-0.00,0.43,0.139862,1005.770081,0.081418,0.008229,0.105811,49.2521095276,-123.2350311279,81.099998,LOCKED,9,0.87,0.22,0.00,-0.45
0.00,0.43,0.001801,1005.786621,0.123653,-0.003425,-0.036716,49.2521095276,-123.2350311279,81.099998,LOCKED,9,0.87,0.21,0.00,-0.45
0.01,0.39,0.001801,1005.786621,0.085690,-0.064712,-0.196996,49.2521095276,-123.2350311279,81.099998,LOCKED,9,0.87,0.22,-0.01,-0.45
0.01,0.33,-0.106598,1005.799622,-0.117787,0.037314,-0.282568,49.2521095276,-123.2350311279,81.099998,LOCKED,9,0.86,0.23,-0.01,-0.45
0.01,0.34,-0.106598,1005.799622,-0.101111,-0.193311,0.044613,49.2521095276,-123.2350311279,81.099998,LOCKED,9,0.86,0.24,-0.02,-0.45
0.00,0.40,-0.431808,1005.838501,0.237047,0.152021,0.519950,49.2521095276,-123.2350311279,81.099998,LOCKED,9,0.86,0.23,-0.02,-0.45
-0.01,0.40,-0.431808,1005.838501,0.239525,-0.149429,0.107326,49.2521095276,-123.2350311279,81.099998,LOCKED,9,0.87,0.22,-0.02,-0.44
-0.02,0.37,-0.431808,1005.838501,-0.086301,-0.145918,-0.012528,49.2521095276,-123.2350311279,81.099998,LOCKED,9,0.87,0.22,-0.02,-0.44
-0.03,0.36,-0.431808,1005.838501,-0.145010,-0.379932,0.028638,49.2521095276,-123.2350311279,81.099998,LOCKED,9,0.87,0.22,-0.01,-0.45
-0.05,0.42,-0.608215,1005.859619,0.150539,-0.179125,0.535135,49.2521095276,-123.2350311279,81.099998,LOCKED,9,0.87,0.21,0.00,-0.45
-0.07,0.40,-0.608215,1005.859619,0.243933,-0.045280,0.049875,49.2521095276,-123.2350311279,81.099998,LOCKED,9,0.87,0.20,0.01,-0.45
-0.09,0.28,-0.661896,1005.866089,-0.064637,-0.125792,-0.467314,49.2521095276,-123.2350311279,81.099998,LOCKED,9,0.87,0.19,0.01,-0.45
-0.11,0.21,-0.661896,1005.866089,-0.229105,-0.246467,-0.228160,49.2521095276,-123.2350311279,81.099998,LOCKED,9,0.87,0.20,0.01,-0.45
-0.13,0.16,-0.621506,1005.861267,-0.061268,-0.307400,-0.105105,49.2521095276,-123.2350311279,81.099998,LOCKED,9,0.87,0.21,0.01,-0.45
-0.15,0.17,-0.621506,1005.861267,0.095230,-0.059338,0.165296,49.2521095276,-123.2350311279,81.099998,LOCKED,9,0.87,0.21,0.01,-0.45
-0.18,0.14,-0.838303,1005.887207,0.089581,-0.025928,0.075325,49.2521095276,-123.2350311279,81.099998,LOCKED,9,0.87,0.20,0.01,-0.45
-0.20,0.05,-0.838303,1005.887207,0.036993,-0.062039,-0.328407,49.2521095276,-123.2350311279,81.099998,LOCKED,9,0.87,0.20,0.00,-0.44
-0.22,-0.05,-0.594406,1005.857971,-0.039284,0.039660,-0.412679,49.2521095276,-123.2350311279,81.099998,LOCKED,9,0.87,0.21,-0.00,-0.44
-0.24,-0.12,-0.594406,1005.857971,-0.044820,-0.128099,-0.273001,49.2521095276,-123.2350311279,81.099998,LOCKED,9,0.87,0.22,-0.01,-0.45
-0.26,-0.18,-0.716095,1005.872559,-0.038804,-0.079196,-0.223027,49.2521095276,-123.2350311279,81.099998,LOCKED,9,0.86,0.23,-0.01,-0.45
-0.28,-0.22,-0.716095,1005.872559,0.001965,0.045813,-0.067025,49.2521095276,-123.2350311279,81.099998,LOCKED,9,0.86,0.23,-0.02,-0.45
-0.30,-0.25,-0.604630,1005.859192,0.054999,-0.015849,-0.071660,49.2521095276,-123.2350311279,81.099998,LOCKED,9,0.86,0.23,-0.02,-0.44
-0.32,-0.26,-0.604630,1005.859192,0.104572,-0.056325,0.012885,49.2521095276,-123.2350311279,81.099998,LOCKED,9,0.87,0.23,-0.02,-0.44
-0.34,-0.25,-0.594406,1005.857971,0.056392,-0.142794,0.131433,49.2521095276,-123.2350311279,81.099998,LOCKED,9,0.87,0.23,-0.01,-0.45
-0.35,-0.26,-0.594406,1005.857971,0.045717,-0.023717,0.062269,49.2521095276,-123.2350311279,81.099998,LOCKED,9,0.87,0.23,-0.01,-0.45
-0.36,-0.26,-0.513107,1005.848267,-0.053786,-0.047942,0.060512,49.2521095276,-123.2350311279,81.099998,LOCKED,9,0.87,0.22,0.00,-0.45
-0.37,-0.25,-0.513107,1005.848267,0.007390,-0.063146,0.098964,49.2521095276,-123.2350311279,81.099998,LOCKED,9,0.87,0.21,0.01,-0.45
-0.38,-0.21,-0.337204,1005.827209,0.052198,-0.086241,0.186967,49.2521095276,-123.2350311279,81.099998,LOCKED,9,0.87,0.20,0.02,-0.45
-0.38,-0.18,-0.337204,1005.827209,0.029611,-0.053138,0.129823,49.2520751953,-123.2350997925,81.099998,LOCKED,9,0.87,0.20,0.02,-0.45
-0.37,-0.16,-0.201202,1005.810913,-0.064366,-0.085755,0.071511,49.2520751953,-123.2350997925,81.099998,LOCKED,9,0.87,0.20,0.03,-0.45
-0.37,-0.13,-0.201202,1005.810913,-0.041636,0.034307,0.130091,49.2520751953,-123.2350997925,81.099998,LOCKED,9,0.87,0.20,0.03,-0.45
-0.37,-0.09,-0.298859,1005.822632,0.025039,-0.069606,0.210554,49.2520751953,-123.2350997925,81.099998,LOCKED,9,0.87,0.19,0.03,-0.45
-0.37,-0.03,-0.298859,1005.822632,0.072448,-0.033323,0.293944,49.2520751953,-123.2350997925,81.099998,LOCKED,9,0.88,0.19,0.03,-0.44
-0.35,0.02,-0.065689,1005.794678,0.023881,-0.102005,0.198266,49.2520751953,-123.2350997925,81.099998,LOCKED,9,0.87,0.19,0.02,-0.44
-0.34,0.07,-0.065689,1005.794678,0.032198,-0.075111,0.195663,49.2520751953,-123.2350997925,81.099998,LOCKED,9,0.87,0.20,0.02,-0.45
-0.33,0.14,-0.065689,1005.794678,0.029650,-0.070675,0.278852,49.2520751953,-123.2350997925,81.099998,LOCKED,9,0.87,0.20,0.02,-0.45
-0.31,0.21,-0.065689,1005.794678,0.076392,-0.042365,0.319259,49.2520751953,-123.2350997925,81.099998,LOCKED,9,0.87,0.19,0.02,-0.45
-0.30,0.26,-0.079498,1005.796387,0.146665,-0.089794,0.232121,49.2520751953,-123.2350997925,81.099998,LOCKED,9,0.87,0.19,0.02,-0.44
-0.28,0.29,-0.079498,1005.796387,0.140612,-0.033929,0.111270,49.2520751953,-123.2350997925,81.099998,LOCKED,9,0.87,0.20,0.02,-0.44
-0.26,0.30,0.015610,1005.784973,-0.001425,-0.031196,-0.043083,49.2520751953,-123.2350997925,81.099998,LOCKED,9,0.87,0.21,0.01,-0.44
-0.25,0.31,0.015610,1005.784973,-0.087032,-0.032591,-0.010298,49.2520751953,-123.2350997925,81.099998,LOCKED,9,0.87,0.23,0.00,-0.44
-0.24,0.36,-0.198639,1005.810608,0.084753,0.014199,0.252488,49.2520751953,-123.2350997925,81.099998,LOCKED,9,0.87,0.23,-0.00,-0.44
-0.23,0.46,-0.198639,1005.810608,0.121633,-0.068123,0.552834,49.2520751953,-123.2350997925,81.099998,LOCKED,9,0.87,0.23,-0.01,-0.44
-0.22,0.55,-0.239548,1005.815491,0.131553,-0.207769,0.493648,49.2520751953,-123.2350997925,81.099998,LOCKED,9,0.87,0.22,-0.00,-0.44
-0.21,0.55,-0.239548,1005.815491,0.191780,0.015788,0.048520,49.2520751953,-123.2350997925,81.099998,LOCKED,9,0.87,0.22,0.00,-0.44
-0.20,0.52,-0.239548,1005.815491,0.018450,-0.000050,-0.166835,49.2520751953,-123.2350997925,81.099998,LOCKED,9,0.87,0.22,0.00,-0.44
-0.19,0.50,-0.130630,1005.802490,-0.120617,-0.051378,-0.162030,49.2520751953,-123.2350997925,81.099998,LOCKED,9,0.87,0.23,0.00,-0.44
-0.18,0.48,-0.130630,1005.802490,-0.008937,-0.009525,-0.095431,49.2520751953,-123.2350997925,81.099998,LOCKED,9,0.87,0.23,-0.00,-0.44
-0.17,0.46,-0.130630,1005.802490,0.152148,-0.135515,-0.120505,49.2520751953,-123.2350997925,81.099998,LOCKED,9,0.87,0.24,-0.01,-0.44
-0.16,0.46,-0.130630,1005.802490,0.063880,-0.034039,-0.059242,49.2520751953,-123.2350997925,81.099998,LOCKED,9,0.86,0.24,-0.02,-0.44
-0.15,0.42,-0.035522,1005.791077,-0.058900,-0.043399,-0.209120,49.2520751953,-123.2350997925,81.099998,LOCKED,9,0.86,0.25,-0.02,-0.44
-0.14,0.37,-0.035522,1005.791077,-0.026542,-0.213383,-0.318658,49.2520751953,-123.2350997925,81.099998,LOCKED,9,0.86,0.25,-0.01,-0.45
-0.12,0.36,0.021240,1005.784302,0.086659,-0.053878,-0.102969,49.2520751953,-123.2350997925,81.099998,LOCKED,9,0.86,0.25,-0.02,-0.45
-0.11,0.35,0.021240,1005.784302,0.047210,-0.065614,-0.142809,49.2520751953,-123.2350997925,81.099998,LOCKED,9,0.86,0.25,-0.02,-0.45
-0.10,0.31,-0.073364,1005.795654,-0.041636,-0.034919,-0.185588,49.2520751953,-123.2350997925,81.099998,LOCKED,9,0.86,0.25,-0.02,-0.45
-0.10,0.25,-0.073364,1005.795654,0.082192,-0.046056,-0.390230,49.2520751953,-123.2350997925,81.099998,LOCKED,9,0.86,0.25,-0.01,-0.45
-0.09,0.16,-0.060577,1005.794067,-0.009075,0.021748,-0.507836,49.2520751953,-123.2350997925,81.099998,LOCKED,9,0.86,0.26,-0.02,-0.45
-0.09,0.12,-0.060577,1005.794067,-0.131372,0.025659,-0.208832,49.2520751953,-123.2350997925,81.099998,LOCKED,9,0.86,0.26,-0.02,-0.45
-0.09,0.05,-0.100464,1005.798889,-0.233590,-0.002101,-0.381156,49.2520751953,-123.2350997925,81.099998,LOCKED,9,0.85,0.26,-0.02,-0.45
-0.09,-0.04,-0.100464,1005.798889,-0.067100,-0.140429,-0.518496,49.2520751953,-123.2350997925,81.099998,LOCKED,9,0.86,0.26,-0.02,-0.45
-0.10,-0.08,-0.370956,1005.831238,0.198962,-0.054871,-0.127307,49.2520751953,-123.2350997925,81.099998,LOCKED,9,0.86,0.26,-0.02,-0.45
-0.11,-0.06,-0.370956,1005.831238,0.112605,-0.125053,0.162017,49.2520751953,-123.2350997925,81.099998,LOCKED,9,0.86,0.26,-0.02,-0.45
-0.12,-0.10,-0.303467,1005.823181,0.021751,-0.084094,-0.141855,49.2520751953,-123.2350997925,81.099998,LOCKED,9,0.86,0.26,-0.02,-0.45
-0.13,-0.15,-0.303467,1005.823181,0.016206,-0.111555,-0.239191,49.2520751953,-123.2350997925,81.099998,LOCKED,9,0.86,0.25,-0.02,-0.45
-0.15,-0.20,-0.506454,1005.847473,-0.082721,-0.139348,-0.176129,49.2520751953,-123.2350997925,81.099998,LOCKED,9,0.86,0.25,-0.02,-0.45
-0.17,-0.19,-0.506454,1005.847473,0.013097,-0.164386,0.205421,49.2520751953,-123.2350997925,81.099998,LOCKED,9,0.86,0.25,-0.02,-0.45
-0.20,-0.20,-0.652695,1005.864990,0.167397,-0.137384,0.083720,49.2520751953,-123.2350997925,81.099998,LOCKED,9,0.86,0.25,-0.01,-0.44
-0.22,-0.19,-0.652695,1005.864990,0.192365,-0.114336,0.192862,49.2520751953,-123.2350997925,81.099998,LOCKED,9,0.86,0.24,-0.01,-0.44
-0.24,-0.16,-0.625076,1005.861694,0.070088,-0.198789,0.260792,49.2520751953,-123.2350997925,81.099998,LOCKED,9,0.87,0.24,-0.01,-0.44
-0.26,-0.16,-0.625076,1005.861694,0.043053,-0.162617,0.140146,49.2520751953,-123.2350997925,81.099998,LOCKED,9,0.87,0.23,-0.00,-0.44
-0.28,-0.16,-0.748306,1005.876404,0.027920,-0.155420,0.146266,49.2520751953,-123.2350997925,81.099998,LOCKED,9,0.87,0.23,0.01,-0.44
-0.31,-0.14,-0.748306,1005.876404,0.085068,-0.198594,0.275406,49.2520751953,-123.2350997925,81.099998,LOCKED,9,0.87,0.22,0.01,-0.44
-0.33,-0.11,-0.801483,1005.882813,0.113035,-0.205750,0.274530,49.2520751953,-123.2350997925,81.099998,LOCKED,9,0.87,0.21,0.01,-0.44
-0.35,-0.09,-0.801483,1005.882813,0.139536,-0.186351,0.283810,49.2520751953,-123.2350997925,81.099998,LOCKED,9,0.87,0.21,0.02,-0.44
-0.37,-0.05,-0.647583,1005.864380,0.049876,-0.230783,0.297950,49.2520751953,-123.2350997925,81.099998,LOCKED,9,0.87,0.21,0.02,-0.44
-0.38,-0.01,-0.647583,1005.864380,0.060659,-0.145159,0.321801,49.2520751953,-123.2350997925,81.099998,LOCKED,9,0.87,0.21,0.02,-0.44
-0.39,0.02,-0.612808,1005.860168,0.077924,-0.182106,0.242510,49.2520523071,-123.2351303101,81.099998,LOCKED,9,0.87,0.21,0.03,-0.44
-0.40,0.04,-0.612808,1005.860168,0.148481,-0.137039,0.145740,49.2520523071,-123.2351303101,81.099998,LOCKED,9,0.87,0.20,0.03,-0.44
-0.40,0.05,-0.355103,1005.829346,0.067319,-0.188794,0.063079,49.2520523071,-123.2351303101,81.099998,LOCKED,9,0.87,0.21,0.02,-0.44
-0.39,0.05,-0.355103,1005.829346,-0.001013,-0.047583,-0.015588,49.2520523071,-123.2351303101,81.099998,LOCKED,9,0.87,0.22,0.02,-0.44
-0.38,0.04,-0.196091,1005.810303,-0.031909,-0.154881,-0.110633,49.2520523071,-123.2351303101,81.099998,LOCKED,9,0.87,0.22,0.02,-0.44
-0.38,0.04,-0.196091,1005.810303,0.039803,-0.079900,-0.036494,49.2520523071,-123.2351303101,81.099998,LOCKED,9,0.87,0.22,0.02,-0.44
-0.36,0.06,-0.100464,1005.798889,0.035579,-0.109597,0.037861,49.2520523071,-123.2351303101,81.099998,LOCKED,9,0.87,0.22,0.02,-0.44
-0.35,0.09,-0.100464,1005.798889,0.088675,-0.108271,0.051021,49.2520523071,-123.2351303101,81.099998,LOCKED,9,0.87,0.22,0.02,-0.44
-0.34,0.08,-0.060577,1005.794067,0.037102,-0.070980,-0.136463,49.2520523071,-123.2351303101,81.099998,LOCKED,9,0.87,0.22,0.02,-0.44
-0.32,0.05,-0.060577,1005.794067,0.019459,-0.045763,-0.222020,49.2520523071,-123.2351303101,81.099998,LOCKED,9,0.87,0.23,0.02,-0.44
-0.30,0.04,0.097931,1005.775146,-0.009364,-0.036268,-0.192282,49.2520523071,-123.2351303101,81.099998,LOCKED,9,0.87,0.23,0.02,-0.44
-0.28,0.04,0.097931,1005.775146,-0.035453,-0.074052,-0.130111,49.2520523071,-123.2351303101,81.099998,LOCKED,9,0.87,0.23,0.02,-0.44
-0.27,0.04,0.043732,1005.781616,0.106569,-0.118111,-0.138146,49.2520523071,-123.2351303101,81.099998,LOCKED,9,0.87,0.23,0.01,-0.44
-0.26,0.03,0.043732,1005.781616,0.098614,-0.104980,-0.139188,49.2520523071,-123.2351303101,81.099998,LOCKED,9,0.87,0.23,0.01,-0.44
-0.25,0.01,-0.077454,1005.781616,0.056115,-0.072461,-0.178367,49.2520523071,-123.2351303101,81.099998,LOCKED,9,0.87,0.24,0.01,-0.44
-0.24,-0.01,-0.077454,1005.796143,-0.010764,-0.116076,-0.139755,49.2520523071,-123.2351303101,81.099998,LOCKED,9,0.87,0.24,0.01,-0.44
-0.23,0.01,-0.077454,1005.796143,0.020477,-0.087781,0.042280,49.2520523071,-123.2351303101,81.099998,LOCKED,9,0.87,0.24,0.01,-0.44
-0.24,0.03,-0.322388,1005.825439,0.153007,-0.186932,0.171320,49.2520523071,-123.2351303101,81.099998,LOCKED,9,0.87,0.23,0.02,-0.44
-0.24,0.04,-0.322388,1005.825439,0.163444,-0.067123,0.085962,49.2520523071,-123.2351303101,81.099998,LOCKED,9,0.87,0.23,0.01,-0.44
-0.25,-0.00,-0.376068,1005.831848,0.101224,-0.134209,-0.200401,49.2520523071,-123.2351303101,81.099998,LOCKED,9,0.87,0.23,0.01,-0.44
-0.25,-0.05,-0.376068,1005.831848,-0.041558,-0.051217,-0.246109,49.2520523071,-123.2351303101,81.099998,LOCKED,9,0.87,0.24,0.01,-0.44
-0.26,-0.05,-0.416977,1005.836731,-0.011151,-0.178693,0.045735,49.2520523071,-123.2351303101,81.099998,LOCKED,9,0.86,0.25,0.00,-0.44
-0.27,-0.01,-0.416977,1005.836731,0.225535,-0.109445,0.272442,49.2520523071,-123.2351303101,81.099998,LOCKED,9,0.87,0.24,0.00,-0.44
-0.28,-0.00,-0.606674,1005.859436,0.179183,-0.173183,0.172602,49.2520523071,-123.2351303101,81.099998,LOCKED,9,0.87,0.23,0.00,-0.44
-0.30,-0.01,-0.606674,1005.859436,0.092978,-0.195296,0.068930,49.2520294189,-123.2351531982,81.099998,LOCKED,9,0.87,0.24,0.00,-0.43
-0.31,0.01,-0.592865,1005.857788,0.011779,-0.207321,0.159137,49.2520294189,-123.2351531982,81.099998,LOCKED,9,0.87,0.24,0.00,-0.44
-0.32,0.03,-0.592865,1005.857788,0.178345,-0.129041,0.218079,49.2520294189,-123.2351531982,81.099998,LOCKED,9,0.87,0.24,0.00,-0.44
-0.34,0.01,-0.674164,1005.867554,0.271130,-0.073938,0.008072,49.2520294189,-123.2351531982,81.099998,LOCKED,9,0.87,0.25,-0.00,-0.43
-0.35,-0.05,-0.674164,1005.867554,-0.025682,0.142679,-0.246776,49.2520294189,-123.2351531982,81.099998,LOCKED,9,0.87,0.25,-0.01,-0.43
-0.36,-0.08,-0.566284,1005.854614,-0.152423,-0.182739,-0.123251,49.2520294189,-123.2351531982,81.099998,LOCKED,9,0.86,0.26,-0.02,-0.44
-0.37,-0.11,-0.566284,1005.854614,0.127528,-0.585973,-0.077805,49.2520294189,-123.2351531982,81.099998,LOCKED,9,0.86,0.27,-0.02,-0.44
-0.39,0.02,-0.822952,1005.885376,0.310690,-0.237831,0.861902,49.2520294189,-123.2351531982,81.099998,LOCKED,9,0.86,0.26,-0.02,-0.44
-0.41,0.09,-0.822952,1005.885376,0.492924,-0.048606,0.512660,49.2520294189,-123.2351531982,81.099998,LOCKED,9,0.87,0.25,-0.01,-0.43
-0.42,0.05,-0.660873,1005.865967,0.131923,-0.039387,-0.160731,49.2520294189,-123.2351531982,81.099998,LOCKED,9,0.87,0.24,-0.01,-0.43
-0.43,-0.08,-0.660873,1005.865967,-0.175932,0.134365,-0.632674,49.2520294189,-123.2351531982,81.099998,LOCKED,9,0.86,0.26,-0.00,-0.44
-0.44,-0.17,-0.484467,1005.844849,-0.170313,-0.276508,-0.474889,49.2520294189,-123.2351531982,81.099998,LOCKED,9,0.85,0.27,-0.01,-0.44
-0.44,-0.27,-0.484467,1005.844849,-0.033920,-0.252465,-0.575367,49.2520294189,-123.2351531982,81.099998,LOCKED,9,0.86,0.27,-0.01,-0.44
-0.45,-0.25,-0.647583,1005.864380,0.304991,0.005253,0.176018,49.2520294189,-123.2351531982,81.099998,LOCKED,9,0.86,0.27,-0.02,-0.44
-0.47,-0.25,-0.647583,1005.864380,0.090109,-0.318110,0.067291,49.2520294189,-123.2351531982,81.099998,LOCKED,9,0.86,0.26,-0.03,-0.43
-0.47,-0.31,-0.444077,1005.840027,0.077256,-0.110398,-0.368927,49.2520294189,-123.2351531982,81.099998,LOCKED,9,0.86,0.26,-0.03,-0.43
-0.48,-0.38,-0.444077,1005.840027,0.009543,-0.098166,-0.388984,49.2520294189,-123.2351531982,81.099998,LOCKED,9,0.86,0.27,-0.02,-0.44
-0.49,-0.41,-0.522308,1005.849365,-0.001554,-0.121458,-0.162605,49.2520294189,-123.2351531982,81.099998,LOCKED,9,0.86,0.27,-0.02,-0.44
-0.49,-0.43,-0.522308,1005.849365,-0.053180,-0.239026,-0.068571,49.2520294189,-123.2351531982,81.099998,LOCKED,9,0.86,0.26,-0.02,-0.44
-0.51,-0.48,-0.657806,1005.865601,0.019660,-0.201680,-0.256098,49.2520294189,-123.2351531982,81.099998,LOCKED,9,0.87,0.25,-0.02,-0.43
-0.52,-0.51,-0.657806,1005.865601,0.215964,-0.114233,-0.129718,49.2520294189,-123.2351531982,81.099998,LOCKED,9,0.87,0.24,-0.02,-0.43
-0.54,-0.48,-0.736542,1005.875000,0.122525,-0.163600,0.225008,49.2520294189,-123.2351531982,81.099998,LOCKED,9,0.87,0.24,-0.01,-0.43
-0.56,-0.45,-0.736542,1005.875000,0.060804,-0.279788,0.217239,49.2520294189,-123.2351531982,81.099998,LOCKED,9,0.87,0.23,-0.01,-0.43
-0.58,-0.45,-0.912949,1005.896118,0.090333,-0.234358,0.114768,49.2520294189,-123.2351531982,81.099998,LOCKED,9,0.88,0.22,0.00,-0.43
-0.60,-0.37,-0.912949,1005.896118,0.215293,-0.239738,0.587252,49.2520294189,-123.2351531982,82.400002,LOCKED,8,0.88,0.21,0.01,-0.42
-0.62,-0.28,-0.953339,1005.900940,0.262230,-0.098771,0.594977,49.2520294189,-123.2351531982,82.400002,LOCKED,8,0.89,0.20,0.02,-0.42
-0.64,-0.25,-0.953339,1005.900940,0.158241,-0.161759,0.233791,49.2520294189,-123.2351531982,82.400002,LOCKED,8,0.89,0.19,0.03,-0.42
-0.66,-0.25,-0.885330,1005.892822,0.016437,-0.169413,0.072877,49.2520294189,-123.2351531982,82.400002,LOCKED,8,0.89,0.19,0.03,-0.42
-0.67,-0.22,-0.885330,1005.892822,0.036741,-0.082516,0.286133,49.2520294189,-123.2351531982,82.400002,LOCKED,8,0.89,0.20,0.03,-0.42
-0.69,-0.16,-0.898117,1005.894348,0.112245,-0.108026,0.383429,49.2520294189,-123.2351531982,82.400002,LOCKED,8,0.89,0.19,0.03,-0.42
-0.70,-0.11,-0.898117,1005.894348,0.119424,-0.223850,0.337514,49.2520294189,-123.2351531982,82.400002,LOCKED,8,0.89,0.19,0.03,-0.42
-0.70,-0.05,-0.749847,1005.876587,0.167354,-0.229358,0.370894,49.2520294189,-123.2351531982,82.400002,LOCKED,8,0.89,0.19,0.03,-0.42
-0.70,-0.01,-0.749847,1005.876587,0.121274,-0.192212,0.224610,49.2520294189,-123.2351531982,82.400002,LOCKED,8,0.89,0.20,0.03,-0.42
-0.70,0.02,-0.573441,1005.855469,0.099410,-0.189139,0.142623,49.2520294189,-123.2351531982,82.400002,LOCKED,8,0.89,0.20,0.03,-0.42
-0.69,0.05,-0.573441,1005.855469,0.088060,-0.211612,0.106247,49.2520294189,-123.2351531982,82.400002,LOCKED,8,0.89,0.19,0.03,-0.42
-0.68,0.07,-0.422089,1005.837341,0.108930,-0.249987,0.021998,49.2520294189,-123.2351531982,82.400002,LOCKED,8,0.89,0.19,0.03,-0.42
-0.67,0.07,-0.422089,1005.837341,0.101035,-0.233152,-0.046769,49.2520294189,-123.2351531982,82.400002,LOCKED,8,0.89,0.19,0.03,-0.42
-0.65,0.08,-0.394470,1005.837341,0.077869,-0.175594,-0.048411,49.2520294189,-123.2351531982,82.400002,LOCKED,8,0.89,0.19,0.03,-0.42
-0.64,0.08,-0.394470,1005.834045,0.068367,-0.168006,-0.061803,49.2520294189,-123.2351531982,82.400002,LOCKED,8,0.89,0.20,0.03,-0.42
-0.63,0.09,-0.326477,1005.834045,0.075155,-0.154025,-0.064918,49.2520294189,-123.2351531982,82.400002,LOCKED,8,0.88,0.20,0.02,-0.42
-0.61,0.08,-0.326477,1005.825928,0.082448,-0.130918,-0.122142,49.2520294189,-123.2351531982,82.400002,LOCKED,8,0.88,0.21,0.02,-0.42
-0.60,0.07,-0.326477,1005.825928,0.073177,-0.097652,-0.133812,49.2520294189,-123.2351531982,82.400002,LOCKED,8,0.88,0.21,0.02,-0.42
-0.59,0.05,-0.465042,1005.842529,0.058305,-0.127814,-0.197852,49.2520294189,-123.2351531982,82.400002,LOCKED,8,0.88,0.21,0.02,-0.42
-0.58,0.02,-0.465042,1005.842529,0.041385,-0.088666,-0.196152,49.2520294189,-123.2351531982,82.400002,LOCKED,8,0.88,0.22,0.02,-0.42
-0.58,-0.01,-0.492142,1005.845764,0.065876,-0.076501,-0.178233,49.2520294189,-123.2351531982,82.400002,LOCKED,8,0.88,0.22,0.02,-0.42
-0.58,-0.04,-0.492142,1005.845764,0.040150,-0.106382,-0.194789,49.2520294189,-123.2351531982,82.400002,LOCKED,8,0.88,0.22,0.02,-0.42
-0.58,-0.07,-0.590317,1005.857483,0.043314,-0.101349,-0.178559,49.2520294189,-123.2351531982,82.400002,LOCKED,8,0.88,0.22,0.02,-0.42
-0.58,-0.11,-0.590317,1005.857483,0.049508,-0.123129,-0.194796,49.2520294189,-123.2351531982,82.400002,LOCKED,8,0.88,0.22,0.02,-0.42
-0.59,-0.14,-0.698715,1005.870483,0.066559,-0.143994,-0.120015,49.2520294189,-123.2351531982,82.400002,LOCKED,8,0.88,0.22,0.02,-0.42
-0.60,-0.14,-0.698715,1005.870483,0.091622,-0.165754,-0.001709,49.2520294189,-123.2351531982,82.400002,LOCKED,8,0.88,0.22,0.02,-0.42
-0.60,-0.14,-0.640930,1005.863586,0.094873,-0.147529,0.019395,49.2520294189,-123.2351531982,82.400002,LOCKED,8,0.88,0.22,0.02,-0.42
-0.60,-0.15,-0.640930,1005.863586,0.091171,-0.138974,-0.041053,49.2520294189,-123.2351531982,82.400002,LOCKED,8,0.88,0.22,0.02,-0.42
-0.61,-0.15,-0.739105,1005.875305,0.080489,-0.142175,0.047284,49.2520294189,-123.2351531982,82.400002,LOCKED,8,0.88,0.22,0.02,-0.42
-0.62,-0.13,-0.739105,1005.875305,0.085742,-0.152106,0.144504,49.2520294189,-123.2351531982,82.400002,LOCKED,8,0.88,0.22,0.02,-0.42
-0.63,-0.12,-0.726318,1005.873779,0.086043,-0.166722,0.109453,49.2520294189,-123.2351531982,82.400002,LOCKED,8,0.88,0.21,0.02,-0.42
-0.63,-0.11,-0.726318,1005.873779,0.099772,-0.155054,0.071863,49.2520294189,-123.2351531982,82.400002,LOCKED,8,0.88,0.21,0.02,-0.42
-0.64,-0.09,-0.657806,1005.865601,0.116635,-0.128602,0.111239,49.2520294189,-123.2351531982,82.400002,LOCKED,8,0.88,0.21,0.02,-0.42
-0.64,-0.07,-0.657806,1005.865601,0.135760,-0.139038,0.110935,49.2520294189,-123.2351531982,82.400002,LOCKED,8,0.88,0.21,0.02,-0.42
-0.64,-0.05,-0.643494,1005.863892,0.087437,-0.167253,0.134580,49.2520294189,-123.2351531982,82.400002,LOCKED,8,0.88,0.21,0.02,-0.42
-0.64,0.00,-0.643494,1005.863892,0.078581,-0.185175,0.267407,49.2520294189,-123.2351531982,82.400002,LOCKED,8,0.88,0.21,0.02,-0.42
-0.64,0.05,-0.630707,1005.862366,0.107683,-0.191449,0.263425,49.2520294189,-123.2351531982,82.400002,LOCKED,8,0.89,0.21,0.02,-0.41
-0.64,0.08,-0.630707,1005.862366,0.183179,-0.127182,0.151740,49.2520294189,-123.2351531982,82.400002,LOCKED,8,0.89,0.21,0.02,-0.41
-0.63,0.09,-0.467590,1005.842834,0.139819,-0.152986,0.005657,49.2520294189,-123.2351531982,82.400002,LOCKED,8,0.89,0.21,0.02,-0.41
-0.62,0.09,-0.467590,1005.842834,0.028164,-0.158575,-0.035944,49.2520294189,-123.2351531982,82.400002,LOCKED,8,0.89,0.21,0.02,-0.41
-0.61,0.11,-0.441010,1005.839661,0.057244,-0.186574,0.054590,49.2520294189,-123.2351531982,82.400002,LOCKED,8,0.89,0.21,0.02,-0.41
-0.60,0.14,-0.441010,1005.839661,0.098611,-0.230370,0.141026,49.2520294189,-123.2351531982,82.400002,LOCKED,8,0.89,0.20,0.02,-0.41
-0.59,0.17,-0.456863,1005.841553,0.198468,-0.127793,0.092339,49.2520294189,-123.2351531982,82.400002,LOCKED,8,0.89,0.20,0.02,-0.41
-0.58,0.15,-0.456863,1005.841553,0.094083,-0.157508,-0.143842,49.2520294189,-123.2351531982,82.400002,LOCKED,8,0.89,0.21,0.02,-0.41
-0.57,0.13,-0.322388,1005.825439,0.018129,-0.150037,-0.174233,49.2520294189,-123.2351531982,82.400002,LOCKED,8,0.88,0.21,0.02,-0.41
-0.56,0.14,-0.322388,1005.825439,-0.001288,-0.162037,-0.040699,49.2520294189,-123.2351531982,82.400002,LOCKED,8,0.88,0.21,0.02,-0.41
-0.55,0.15,-0.456863,1005.841553,0.048448,-0.169332,0.030790,49.2520294189,-123.2351531982,82.400002,LOCKED,8,0.89,0.21,0.02,-0.42
-0.54,0.16,-0.456863,1005.841553,0.156359,-0.157089,0.037117,49.2520294189,-123.2351531982,82.400002,LOCKED,8,0.89,0.20,0.02,-0.41
-0.54,0.14,-0.456863,1005.841553,0.126893,-0.176502,-0.124488,49.2520294189,-123.2351531982,82.400002,LOCKED,8,0.89,0.21,0.02,-0.41
-0.53,0.12,-0.456863,1005.841553,0.003684,-0.131076,-0.139807,49.2520294189,-123.2351531982,82.400002,LOCKED,8,0.89,0.21,0.02,-0.41
-0.53,0.10,-0.498276,1005.846497,-0.015710,-0.139929,-0.102566,49.2520294189,-123.2351531982,82.400002,LOCKED,8,0.88,0.21,0.02,-0.41
-0.52,0.10,-0.498276,1005.846497,0.074234,-0.113824,-0.038088,49.2520294189,-123.2351531982,82.400002,LOCKED,8,0.88,0.21,0.02,-0.41
-0.53,0.09,-0.603607,1005.859070,0.109307,-0.141121,-0.015445,49.2520294189,-123.2351531982,82.400002,LOCKED,8,0.89,0.21,0.02,-0.41
-0.53,0.09,-0.603607,1005.859070,0.089491,-0.130528,-0.011480,49.2520294189,-123.2351531982,82.400002,LOCKED,8,0.89,0.21,0.02,-0.41
-0.53,0.06,-0.522308,1005.849365,0.071918,-0.107529,-0.132667,49.2520294189,-123.2351531982,82.400002,LOCKED,8,0.88,0.21,0.01,-0.41
-0.53,0.05,-0.522308,1005.849365,0.048991,-0.131446,-0.057288,49.2520294189,-123.2351531982,82.400002,LOCKED,8,0.88,0.21,0.01,-0.41
-0.53,0.07,-0.657806,1005.865601,0.052119,-0.168009,0.152058,49.2520294189,-123.2351531982,82.400002,LOCKED,8,0.89,0.21,0.01,-0.41
-0.53,0.09,-0.657806,1005.865601,0.093204,-0.158005,0.145032,49.2520294189,-123.2351531982,82.400002,LOCKED,8,0.89,0.21,0.02,-0.41
-0.54,0.09,-0.755981,1005.877319,0.132861,-0.130605,0.056797,49.2520294189,-123.2351531982,82.400002,LOCKED,8,0.89,0.21,0.02,-0.41
-0.55,0.10,-0.755981,1005.877319,0.158863,-0.158816,0.130967,49.2520294189,-123.2351531982,82.400002,LOCKED,8,0.89,0.21,0.02,-0.41
-0.56,0.09,-0.755981,1005.877319,0.118618,-0.135508,0.006527,49.2520294189,-123.2351531982,82.400002,LOCKED,8,0.89,0.21,0.02,-0.41
-0.56,0.07,-0.706894,1005.871460,0.002588,-0.129940,-0.081919,49.2520294189,-123.2351531982,82.400002,LOCKED,8,0.89,0.21,0.02,-0.41
-0.57,0.08,-0.706894,1005.871460,0.031289,-0.135277,0.107786,49.2520294189,-123.2351531982,82.400002,LOCKED,8,0.89,0.21,0.02,-0.41
-0.57,0.12,-0.720703,1005.873108,0.166508,-0.210796,0.270489,49.2520294189,-123.2351531982,82.400002,LOCKED,8,0.89,0.20,0.02,-0.41
-0.58,0.12,-0.720703,1005.873108,0.185564,-0.097983,0.054380,49.2520294189,-123.2351531982,82.400002,LOCKED,8,0.89,0.20,0.02,-0.41
-0.58,0.11,-0.625076,1005.861694,-0.012068,-0.178511,-0.018611,49.2520294189,-123.2351531982,82.400002,LOCKED,8,0.89,0.20,0.02,-0.41
-0.58,0.10,-0.625076,1005.861694,-0.059365,-0.104020,-0.083840,49.2520294189,-123.2351531982,82.400002,LOCKED,8,0.89,0.20,0.03,-0.41
-0.58,0.10,-0.625076,1005.861694,0.033185,-0.111844,0.048673,49.2520294189,-123.2351531982,82.400002,LOCKED,8,0.89,0.20,0.03,-0.41
-0.58,0.13,-0.625076,1005.861694,0.118701,-0.140936,0.187551,49.2520294189,-123.2351531982,82.400002,LOCKED,8,0.89,0.20,0.03,-0.41
-0.58,0.14,-0.599518,1005.858582,0.096277,-0.153111,0.074356,49.2520294189,-123.2351531982,82.400002,LOCKED,8,0.89,0.20,0.03,-0.41
-0.58,0.11,-0.599518,1005.858582,0.042841,-0.080279,-0.175893,49.2520294189,-123.2351531982,82.400002,LOCKED,8,0.89,0.20,0.03,-0.41
-0.57,0.08,-0.491119,1005.845642,-0.010198,-0.090086,-0.179147,49.2520294189,-123.2351531982,82.400002,LOCKED,8,0.89,0.20,0.03,-0.41
-0.56,0.11,-0.491119,1005.845642,0.026671,-0.112095,0.123193,49.2520294189,-123.2351531982,82.400002,LOCKED,8,0.89,0.20,0.03,-0.42
-0.56,0.12,-0.612808,1005.860168,0.028487,-0.157041,0.071702,49.2520294189,-123.2351531982,82.400002,LOCKED,8,0.89,0.20,0.04,-0.42
-0.56,0.13,-0.612808,1005.860168,0.091940,-0.146304,0.043890,49.2520294189,-123.2351531982,82.400002,LOCKED,8,0.89,0.19,0.04,-0.42
-0.56,0.12,-0.544800,1005.852051,0.090389,-0.103022,-0.017466,49.2520294189,-123.2351531982,82.400002,LOCKED,8,0.89,0.20,0.04,-0.42
-0.56,0.11,-0.544800,1005.852051,0.063908,-0.105132,-0.072823,49.2520294189,-123.2351531982,82.400002,LOCKED,8,0.89,0.20,0.04,-0.42
-0.56,0.08,-0.544800,1005.852051,-0.021653,-0.091372,-0.159107,49.2520294189,-123.2351531982,82.400002,LOCKED,8,0.89,0.20,0.04,-0.42
-0.55,0.08,-0.544800,1005.852051,0.009987,-0.079424,-0.006830,49.2520294189,-123.2351531982,82.400002,LOCKED,8,0.89,0.20,0.04,-0.42
-0.56,0.10,-0.642471,1005.863770,0.086525,-0.156213,0.104370,49.2520294189,-123.2351531982,82.400002,LOCKED,8,0.89,0.20,0.04,-0.42
-0.56,0.10,-0.642471,1005.863770,0.127604,-0.116946,0.034051,49.2520294189,-123.2351531982,82.400002,LOCKED,8,0.89,0.19,0.04,-0.42
-0.56,0.08,-0.642471,1005.863770,0.029859,-0.131740,-0.060488,49.2520294189,-123.2351531982,82.400002,LOCKED,8,0.89,0.20,0.04,-0.42
-0.56,0.06,-0.642471,1005.863770,0.013125,-0.063845,-0.100585,49.2520294189,-123.2351531982,82.400002,LOCKED,8,0.89,0.20,0.04,-0.42
-0.57,0.06,-0.655243,1005.865295,0.010335,-0.100372,0.016990,49.2520294189,-123.2351531982,82.400002,LOCKED,8,0.89,0.20,0.04,-0.42
-0.57,0.07,-0.655243,1005.865295,0.063288,-0.123065,0.077690,49.2520294189,-123.2351531982,82.400002,LOCKED,8,0.89,0.19,0.04,-0.42
-0.57,0.07,-0.629166,1005.862183,0.072062,-0.125398,0.034305,49.2520294189,-123.2351531982,82.400002,LOCKED,8,0.89,0.19,0.04,-0.42
-0.57,0.06,-0.629166,1005.862183,0.032626,-0.101726,-0.059746,49.2520294189,-123.2351531982,82.400002,LOCKED,8,0.89,0.20,0.04,-0.42
-0.57,0.05,-0.588272,1005.857239,0.024058,-0.121962,-0.009855,49.2520294189,-123.2351531982,82.400002,LOCKED,8,0.89,0.20,0.04,-0.42
-0.57,0.06,-0.588272,1005.857239,0.002857,-0.115980,0.066716,49.2520294189,-123.2351531982,82.400002,LOCKED,8,0.89,0.19,0.05,-0.42
-0.57,0.08,-0.558609,1005.853699,0.018413,-0.111592,0.078434,49.2520294189,-123.2351531982,82.400002,LOCKED,8,0.89,0.19,0.05,-0.42
-0.57,0.10,-0.558609,1005.853699,0.070408,-0.132505,0.096385,49.2520294189,-123.2351531982,82.400002,LOCKED,8,0.89,0.19,0.05,-0.42
-0.56,0.11,-0.544800,1005.852051,0.095202,-0.151996,0.094013,49.2520294189,-123.2351531982,82.400002,LOCKED,8,0.89,0.19,0.05,-0.42
-0.56,0.13,-0.544800,1005.852051,0.049556,-0.079835,0.059208,49.2520294189,-123.2351531982,82.400002,LOCKED,8,0.89,0.19,0.05,-0.42
-0.56,0.13,-0.588272,1005.857239,0.009253,-0.111063,0.051780,49.2520294189,-123.2351531982,82.400002,LOCKED,8,0.89,0.19,0.05,-0.42
-0.56,0.15,-0.588272,1005.857239,-0.004480,-0.136585,0.078196,49.2520294189,-123.2351531982,82.400002,LOCKED,8,0.89,0.19,0.05,-0.42
-0.56,0.17,-0.531006,1005.850403,0.038482,-0.121861,0.122983,49.2520294189,-123.2351531982,82.400002,LOCKED,8,0.89,0.19,0.05,-0.42
-0.55,0.19,-0.531006,1005.850403,0.102411,-0.129869,0.136884,49.2520294189,-123.2351531982,82.400002,LOCKED,8,0.89,0.19,0.05,-0.42
-0.54,0.20,-0.449707,1005.840698,0.118033,-0.089086,0.001544,49.2520294189,-123.2351531982,82.400002,LOCKED,8,0.89,0.19,0.05,-0.42
-0.54,0.18,-0.449707,1005.840698,0.021790,-0.079870,-0.145768,49.2520294189,-123.2351531982,82.400002,LOCKED,8,0.89,0.19,0.05,-0.42
-0.52,0.18,-0.348969,1005.828613,-0.016867,-0.111348,-0.070014,49.2520294189,-123.2351531982,82.400002,LOCKED,8,0.89,0.19,0.05,-0.42
-0.51,0.17,-0.348969,1005.828613,0.035868,-0.109554,-0.063534,49.2520294189,-123.2351531982,82.400002,LOCKED,8,0.89,0.19,0.04,-0.42
-0.51,0.18,-0.408798,1005.835754,0.069377,-0.140989,-0.001449,49.2520294189,-123.2351531982,82.400002,LOCKED,8,0.89,0.19,0.04,-0.42
-0.50,0.19,-0.408798,1005.835754,0.087831,-0.130213,0.036055,49.2520294189,-123.2351531982,82.400002,LOCKED,8,0.89,0.19,0.04,-0.42
-0.49,0.18,-0.435898,1005.839050,0.041300,-0.082146,-0.092944,49.2520294189,-123.2351531982,82.400002,LOCKED,8,0.89,0.20,0.04,-0.42
-0.49,0.16,-0.435898,1005.839050,0.015772,-0.080920,-0.134236,49.2520294189,-123.2351531982,82.400002,LOCKED,8,0.89,0.20,0.04,-0.42
-0.49,0.14,-0.531006,1005.850403,0.003940,-0.111095,-0.091233,49.2520294189,-123.2351531982,82.400002,LOCKED,8,0.89,0.20,0.04,-0.42
-0.49,0.14,-0.531006,1005.850403,0.034962,-0.129870,0.036599,49.2520294189,-123.2351531982,82.400002,LOCKED,8,0.89,0.20,0.04,-0.42
-0.49,0.14,-0.531006,1005.850403,0.050523,-0.130740,0.005377,49.2520294189,-123.2351531982,82.400002,LOCKED,8,0.89,0.19,0.04,-0.42
-0.49,0.12,-0.682861,1005.868591,0.090350,-0.142140,-0.035281,49.2519226074,-123.2351989746,82.400002,LOCKED,8,0.89,0.20,0.04,-0.42
-0.50,0.13,-0.682861,1005.868591,0.053016,-0.106950,0.080433,49.2519226074,-123.2351989746,82.400002,LOCKED,8,0.89,0.20,0.04,-0.42
-0.51,0.12,-0.750870,1005.876709,0.014050,-0.081026,0.026736,49.2519226074,-123.2351989746,82.400002,LOCKED,8,0.89,0.20,0.04,-0.42
-0.52,0.09,-0.750870,1005.876709,0.025313,-0.107931,-0.066231,49.2519226074,-123.2351989746,82.400002,LOCKED,8,0.89,0.19,0.04,-0.42
-0.53,0.10,-0.778473,1005.880005,0.086797,-0.135762,0.110914,49.2519226074,-123.2351989746,82.400002,LOCKED,8,0.89,0.19,0.04,-0.42
-0.53,0.11,-0.778473,1005.880005,0.109471,-0.108390,0.131191,49.2519226074,-123.2351989746,82.400002,LOCKED,8,0.89,0.20,0.04,-0.42
-0.54,0.09,-0.778473,1005.880005,0.016747,-0.100820,-0.036556,49.2519226074,-123.2351989746,82.400002,LOCKED,8,0.89,0.20,0.04,-0.42
-0.55,0.07,-0.778473,1005.880005,0.015127,-0.099857,-0.011734,49.2519226074,-123.2351989746,82.400002,LOCKED,8,0.89,0.19,0.04,-0.42
-0.56,0.10,-0.734497,1005.874756,0.076702,-0.153805,0.188161,49.2519226074,-123.2351989746,82.400002,LOCKED,8,0.89,0.19,0.04,-0.42
-0.56,0.11,-0.734497,1005.874756,0.095577,-0.121239,0.133987,49.2519226074,-123.2351989746,82.400002,LOCKED,8,0.89,0.19,0.04,-0.42
-0.57,0.10,-0.720703,1005.873108,0.044371,-0.109909,-0.025627,49.2519226074,-123.2351989746,82.400002,LOCKED,8,0.89,0.19,0.04,-0.42
-0.57,0.10,-0.720703,1005.873108,0.005385,-0.110893,0.045171,49.2519226074,-123.2351989746,82.400002,LOCKED,8,0.89,0.19,0.04,-0.42
-0.58,0.11,-0.720703,1005.873108,0.040776,-0.119789,0.096465,49.2519226074,-123.2351989746,82.400002,LOCKED,8,0.89,0.19,0.04,-0.42
-0.58,0.10,-0.720703,1005.873108,0.039934,-0.110315,-0.002803,49.2519226074,-123.2351989746,82.400002,LOCKED,8,0.89,0.19,0.04,-0.42
-0.59,0.11,-0.701263,1005.870789,0.081582,-0.127189,0.099737,49.2519226074,-123.2351989746,82.400002,LOCKED,8,0.89,0.19,0.04,-0.42
-0.59,0.12,-0.701263,1005.870789,0.077288,-0.130934,0.107591,49.2519226074,-123.2351989746,82.400002,LOCKED,8,0.89,0.19,0.04,-0.42
-0.59,0.12,-0.619965,1005.861084,0.025211,-0.116114,-0.020843,49.2519226074,-123.2351989746,82.400002,LOCKED,8,0.89,0.19,0.04,-0.42
-0.59,0.10,-0.619965,1005.861084,-0.013263,-0.106051,-0.058658,49.2519226074,-123.2351989746,82.400002,LOCKED,8,0.89,0.19,0.04,-0.42
-0.59,0.10,-0.647583,1005.864380,0.008504,-0.113418,0.001828,49.2519226074,-123.2351989746,82.400002,LOCKED,8,0.89,0.19,0.04,-0.42
-0.59,0.11,-0.647583,1005.864380,0.090176,-0.118729,0.055507,49.2519226074,-123.2351989746,82.400002,LOCKED,8,0.89,0.19,0.04,-0.42
-0.59,0.11,-0.552475,1005.852966,0.077243,-0.102162,-0.020969,49.2519226074,-123.2351989746,82.400002,LOCKED,8,0.89,0.19,0.04,-0.42
-0.58,0.10,-0.552475,1005.852966,0.035372,-0.102099,-0.070894,49.2519226074,-123.2351989746,82.400002,LOCKED,8,0.89,0.19,0.04,-0.42
-0.58,0.08,-0.524857,1005.849670,-0.015478,-0.104381,-0.128771,49.2519226074,-123.2351989746,82.400002,LOCKED,8,0.89,0.19,0.04,-0.42
-0.58,0.07,-0.524857,1005.849670,-0.007276,-0.104766,-0.061617,49.2519226074,-123.2351989746,82.400002,LOCKED,8,0.89,0.19,0.04,-0.42
-0.58,0.08,-0.592865,1005.857788,0.071912,-0.136325,0.058362,49.2519226074,-123.2351989746,89.099998,LOCKED,8,0.89,0.19,0.04,-0.42
-0.57,0.07,-0.592865,1005.857788,0.091909,-0.123913,-0.056256,49.2519226074,-123.2351989746,89.099998,LOCKED,8,0.89,0.19,0.04,-0.42
-0.57,0.05,-0.592865,1005.857788,0.010558,-0.076126,-0.107368,49.2519226074,-123.2351989746,89.099998,LOCKED,8,0.89,0.19,0.04,-0.42
-0.57,0.04,-0.592865,1005.857788,-0.005221,-0.134677,-0.033802,49.2519226074,-123.2351989746,89.099998,LOCKED,8,0.89,0.20,0.04,-0.42
-0.58,0.03,-0.701263,1005.870789,0.008011,-0.084953,-0.035079,49.2519226074,-123.2351989746,89.099998,LOCKED,8,0.89,0.19,0.04,-0.42
-0.58,0.02,-0.701263,1005.870789,0.026312,-0.124370,0.009692,49.2519226074,-123.2351989746,89.099998,LOCKED,8,0.89,0.19,0.04,-0.42
-0.59,0.03,-0.769272,1005.878906,0.076952,-0.099601,0.091987,49.2519226074,-123.2351989746,89.099998,LOCKED,8,0.89,0.19,0.04,-0.42
-0.60,0.03,-0.769272,1005.878906,0.064770,-0.071640,0.046315,49.2519226074,-123.2351989746,89.099998,LOCKED,8,0.89,0.20,0.04,-0.42
-0.61,0.02,-0.755981,1005.877319,0.024899,-0.110903,0.020737,49.2519226074,-123.2351989746,89.099998,LOCKED,8,0.89,0.20,0.04,-0.42
-0.61,0.04,-0.755981,1005.877319,0.016394,-0.118171,0.142057,49.2519226074,-123.2351989746,89.099998,LOCKED,8,0.89,0.19,0.04,-0.42
-0.62,0.04,-0.769272,1005.878906,0.063143,-0.091498,0.067023,49.2519226074,-123.2351989746,89.099998,LOCKED,8,0.89,0.19,0.04,-0.42
-0.62,0.02,-0.769272,1005.878906,0.071040,-0.113199,-0.065289,49.2519226074,-123.2351989746,89.099998,LOCKED,8,0.89,0.19,0.04,-0.42
-0.63,0.03,-0.671097,1005.867188,0.026059,-0.091855,0.060288,49.2519226074,-123.2351989746,89.099998,LOCKED,8,0.89,0.20,0.03,-0.42
-0.63,0.05,-0.671097,1005.867188,0.033272,-0.082078,0.142365,49.2519226074,-123.2351989746,89.099998,LOCKED,8,0.89,0.19,0.04,-0.42
-0.62,0.06,-0.587250,1005.857117,0.061191,-0.107397,0.038369,49.2519226074,-123.2351989746,89.099998,LOCKED,8,0.89,0.19,0.04,-0.42
-0.62,0.10,-0.587250,1005.857117,0.106035,-0.117790,0.195911,49.2519226074,-123.2351989746,89.099998,LOCKED,8,0.89,0.19,0.03,-0.42
-0.62,0.13,-0.563217,1005.854248,0.021060,-0.139869,0.141295,49.2519226074,-123.2351989746,89.099998,LOCKED,8,0.89,0.19,0.04,-0.42
-0.61,0.12,-0.563217,1005.854248,-0.009544,-0.104623,-0.039092,49.2519226074,-123.2351989746,89.099998,LOCKED,8,0.89,0.19,0.04,-0.42
-0.61,0.14,-0.576508,1005.855835,0.053333,-0.088896,0.081303,49.2519226074,-123.2351989746,89.099998,LOCKED,8,0.89,0.19,0.04,-0.42
-0.60,0.18,-0.576508,1005.855835,0.154480,-0.108144,0.226862,49.2519226074,-123.2351989746,89.099998,LOCKED,8,0.89,0.19,0.04,-0.41
-0.59,0.18,-0.410843,1005.855835,0.041424,-0.073242,-0.078593,49.2519226074,-123.2351989746,89.099998,LOCKED,8,0.89,0.19,0.04,-0.42
-0.58,0.16,-0.410843,1005.835999,-0.035148,-0.093891,-0.131646,49.2519226074,-123.2351989746,89.099998,LOCKED,8,0.89,0.19,0.04,-0.42
-0.57,0.18,-0.410843,1005.835999,0.001451,-0.105830,0.060282,49.2519226074,-123.2351989746,89.099998,LOCKED,8,0.89,0.19,0.04,-0.42
-0.56,0.21,-0.410843,1005.835999,0.069488,-0.121274,0.109731,49.2519226074,-123.2351989746,89.099998,LOCKED,8,0.89,0.19,0.04,-0.42
-0.55,0.21,-0.410843,1005.835999,0.027029,-0.099987,-0.069211,49.2519226074,-123.2351989746,89.099998,LOCKED,8,0.89,0.19,0.04,-0.42
-0.55,0.20,-0.549911,1005.852661,0.061663,-0.068910,-0.023839,49.2519226074,-123.2351989746,89.099998,LOCKED,8,0.89,0.19,0.04,-0.42
-0.54,0.21,-0.549911,1005.852661,0.059435,-0.113261,0.023081,49.2519226074,-123.2351989746,89.099998,LOCKED,8,0.89,0.19,0.04,-0.42
-0.54,0.21,-0.492142,1005.845764,0.015955,-0.077080,-0.017078,49.2519226074,-123.2351989746,89.099998,LOCKED,8,0.89,0.19,0.04,-0.42
-0.53,0.19,-0.492142,1005.845764,-0.040317,-0.078915,-0.087500,49.2519226074,-123.2351989746,89.099998,LOCKED,8,0.89,0.19,0.04,-0.42
-0.53,0.19,-0.576508,1005.855835,0.019736,-0.104017,0.013921,49.2519226074,-123.2351989746,89.099998,LOCKED,8,0.89,0.19,0.04,-0.42
-0.53,0.20,-0.576508,1005.855835,0.074943,-0.108643,0.062561,49.2519226074,-123.2351989746,89.099998,LOCKED,8,0.89,0.19,0.04,-0.42
-0.53,0.21,-0.519241,1005.848999,0.081289,-0.087262,0.035750,49.2519226074,-123.2351989746,89.099998,LOCKED,8,0.89,0.19,0.04,-0.42
-0.52,0.20,-0.519241,1005.848999,0.002897,-0.070381,-0.049184,49.2519226074,-123.2351989746,89.099998,LOCKED,8,0.89,0.19,0.04,-0.42
-0.52,0.19,-0.587250,1005.857117,-0.019609,-0.066998,-0.019181,49.2519226074,-123.2351989746,89.099998,LOCKED,8,0.89,0.19,0.04,-0.42
-0.52,0.21,-0.587250,1005.857117,0.047692,-0.133002,0.102155,49.2519226074,-123.2351989746,89.099998,LOCKED,8,0.89,0.19,0.04,-0.42
-0.52,0.22,-0.668549,1005.866882,0.086191,-0.114179,0.132467,49.2519226074,-123.2351989746,89.099998,LOCKED,8,0.89,0.19,0.04,-0.42
-0.53,0.22,-0.668549,1005.866882,0.072379,-0.088047,0.055385,49.2518844604,-123.2352294922,89.099998,LOCKED,8,0.89,0.19,0.04,-0.42
-0.53,0.21,-0.695129,1005.870056,0.024701,-0.091919,-0.033697,49.2518844604,-123.2352294922,89.099998,LOCKED,8,0.89,0.19,0.04,-0.42
-0.53,0.21,-0.695129,1005.870056,0.004592,-0.087688,0.074550,49.2518844604,-123.2352294922,89.099998,LOCKED,8,0.89,0.19,0.04,-0.42
-0.54,0.22,-0.763138,1005.878174,0.046618,-0.113349,0.115871,49.2518844604,-123.2352294922,89.099998,LOCKED,8,0.89,0.19,0.04,-0.42
-0.55,0.21,-0.763138,1005.878174,0.045616,-0.133190,0.012505,49.2518844604,-123.2352294922,89.099998,LOCKED,8,0.89,0.19,0.04,-0.42
-0.55,0.22,-0.736542,1005.875000,0.082941,-0.120033,0.120138,49.2518844604,-123.2352294922,89.099998,LOCKED,8,0.89,0.19,0.04,-0.42
-0.55,0.22,-0.736542,1005.875000,0.056230,-0.097227,0.030718,49.2518844604,-123.2352294922,89.099998,LOCKED,8,0.89,0.19,0.04,-0.42
-0.56,0.20,-0.708939,1005.871704,0.010850,-0.082313,-0.058162,49.2518844604,-123.2352294922,89.099998,LOCKED,8,0.89,0.19,0.04,-0.42
-0.56,0.18,-0.708939,1005.871704,0.016724,-0.095542,-0.040396,49.2518844604,-123.2352294922,89.099998,LOCKED,8,0.89,0.19,0.04,-0.42
-0.57,0.18,-0.736542,1005.875000,0.071285,-0.105590,0.067773,49.2518844604,-123.2352294922,89.099998,LOCKED,8,0.89,0.19,0.04,-0.42
-0.57,0.17,-0.736542,1005.875000,0.057409,-0.103638,-0.009789,49.2518844604,-123.2352294922,89.099998,LOCKED,8,0.89,0.19,0.04,-0.42
-0.57,0.16,-0.736542,1005.875000,0.040091,-0.101127,0.006878,49.2518844604,-123.2352294922,89.099998,LOCKED,8,0.89,0.19,0.04,-0.42
-0.58,0.16,-0.736542,1005.875000,0.022191,-0.116678,0.036170,49.2518844604,-123.2352294922,89.099998,LOCKED,8,0.89,0.19,0.04,-0.42
-0.58,0.15,-0.763138,1005.878174,0.018241,-0.098752,-0.003800,49.2518844604,-123.2352294922,89.099998,LOCKED,8,0.89,0.19,0.04,-0.42
-0.59,0.14,-0.763138,1005.878174,0.040171,-0.108077,-0.019224,49.2518844604,-123.2352294922,89.099998,LOCKED,8,0.89,0.19,0.04,-0.42
-0.59,0.13,-0.638382,1005.863281,0.084552,-0.104941,0.001284,49.2518844604,-123.2352294922,89.099998,LOCKED,8,0.89,0.19,0.03,-0.42
-0.59,0.13,-0.638382,1005.863281,0.037683,-0.100329,-0.027948,49.2518844604,-123.2352294922,89.099998,LOCKED,8,0.89,0.19,0.04,-0.42
-0.59,0.11,-0.624054,1005.861572,-0.031180,-0.075607,-0.073425,49.2518844604,-123.2352294922,89.099998,LOCKED,8,0.89,0.19,0.04,-0.42
-0.59,0.11,-0.624054,1005.861572,0.001830,-0.101554,-0.009265,49.2518844604,-123.2352294922,89.099998,LOCKED,8,0.89,0.19,0.04,-0.42
-0.59,0.13,-0.733475,1005.874634,0.064171,-0.163184,0.145523,49.2518844604,-123.2352294922,89.099998,LOCKED,8,0.89,0.19,0.04,-0.42
-0.60,0.14,-0.733475,1005.874634,0.057279,-0.114426,0.102427,49.2518844604,-123.2352294922,89.099998,LOCKED,8,0.89,0.19,0.04,-0.42
-0.60,0.12,-0.705872,1005.871338,0.021140,-0.078948,-0.056814,49.2518844604,-123.2352294922,89.099998,LOCKED,8,0.89,0.19,0.04,-0.42
-0.60,0.11,-0.705872,1005.871338,0.021387,-0.077963,-0.025634,49.2518844604,-123.2352294922,89.099998,LOCKED,8,0.89,0.19,0.04,-0.42
-0.60,0.12,-0.661896,1005.866089,0.056286,-0.113252,0.061336,49.2518844604,-123.2352294922,89.099998,LOCKED,8,0.89,0.19,0.04,-0.42
-0.60,0.10,-0.661896,1005.866089,0.061070,-0.069277,-0.056293,49.2518844604,-123.2352294922,89.099998,LOCKED,8,0.89,0.19,0.04,-0.41
-0.60,0.08,-0.581116,1005.856384,0.012453,-0.073391,-0.142912,49.2518844604,-123.2352294922,89.099998,LOCKED,8,0.89,0.19,0.04,-0.41
-0.60,0.08,-0.581116,1005.856384,0.027740,-0.104942,0.016048,49.2518844604,-123.2352294922,89.099998,LOCKED,8,0.89,0.19,0.04,-0.41
-0.59,0.09,-0.567307,1005.854736,-0.005789,-0.107228,0.013741,49.2518844604,-123.2352294922,89.099998,LOCKED,8,0.89,0.19,0.04,-0.41
-0.59,0.09,-0.567307,1005.854736,-0.018801,-0.086472,-0.009512,49.2518844604,-123.2352294922,89.099998,LOCKED,8,0.89,0.19,0.04,-0.42
-0.59,0.11,-0.507477,1005.847595,0.070200,-0.103859,0.102921,49.2518844604,-123.2352294922,89.099998,LOCKED,8,0.89,0.19,0.04,-0.41
-0.58,0.13,-0.507477,1005.847595,0.132525,-0.088985,0.116073,49.2518844604,-123.2352294922,89.099998,LOCKED,8,0.89,0.19,0.04,-0.41
-0.57,0.15,-0.412888,1005.847595,0.047832,-0.038190,0.032622,49.2518844604,-123.2352294922,89.099998,LOCKED,8,0.89,0.20,0.04,-0.41
-0.57,0.16,-0.485489,1005.844971,-0.020332,-0.071676,0.027152,49.2518844604,-123.2352294922,89.099998,LOCKED,8,0.89,0.19,0.04,-0.41
-0.56,0.17,-0.485489,1005.844971,0.001139,-0.121269,0.057092,49.2518844604,-123.2352294922,89.099998,LOCKED,8,0.89,0.19,0.04,-0.41
-0.56,0.21,-0.581116,1005.856384,0.083297,-0.102348,0.233020,49.2518844604,-123.2352294922,89.099998,LOCKED,8,0.89,0.19,0.04,-0.41
-0.55,0.22,-0.581116,1005.856384,0.088144,-0.088426,0.067609,49.2518844604,-123.2352294922,89.099998,LOCKED,8,0.89,0.19,0.04,-0.41
-0.55,0.22,-0.513107,1005.848267,0.067982,-0.050814,-0.006973,49.2518539429,-123.2352447510,89.099998,LOCKED,8,0.89,0.19,0.04,-0.41
-0.54,0.24,-0.513107,1005.848267,-0.013246,-0.090339,0.061355,49.2518539429,-123.2352447510,89.099998,LOCKED,8,0.89,0.19,0.04,-0.41
-0.54,0.26,-0.485489,1005.844971,-0.009996,-0.115986,0.117646,49.2518539429,-123.2352447510,89.099998,LOCKED,8,0.89,0.19,0.04,-0.41
-0.53,0.28,-0.485489,1005.844971,0.030524,-0.096911,0.090758,49.2518539429,-123.2352447510,89.099998,LOCKED,8,0.89,0.19,0.04,-0.41
-0.53,0.29,-0.611282,1005.859985,0.147505,-0.049667,0.098920,49.2518539429,-123.2352447510,89.099998,LOCKED,8,0.89,0.19,0.04,-0.41
-0.53,0.29,-0.611282,1005.859985,0.130828,-0.069650,0.031345,49.2518539429,-123.2352447510,89.099998,LOCKED,8,0.89,0.20,0.04,-0.41
-0.51,0.26,-0.377609,1005.832031,-0.005262,-0.055876,-0.202183,49.2518539429,-123.2352447510,89.099998,LOCKED,8,0.89,0.20,0.03,-0.41
-0.50,0.24,-0.377609,1005.832031,-0.077266,-0.099055,-0.198753,49.2518539429,-123.2352447510,89.099998,LOCKED,8,0.89,0.20,0.03,-0.41
-0.50,0.24,-0.405212,1005.835327,-0.014952,-0.105204,-0.011740,49.2518539429,-123.2352447510,89.099998,LOCKED,8,0.89,0.20,0.03,-0.41
-0.49,0.26,-0.405212,1005.835327,0.089855,-0.141293,0.100622,49.2518539429,-123.2352447510,89.099998,LOCKED,8,0.89,0.19,0.03,-0.41
-0.48,0.27,-0.466064,1005.842651,0.041182,-0.138438,0.034503,49.2518539429,-123.2352447510,89.099998,LOCKED,8,0.89,0.19,0.04,-0.41
-0.48,0.27,-0.466064,1005.842651,0.049578,-0.061482,0.001390,49.2518539429,-123.2352447510,89.099998,LOCKED,8,0.89,0.19,0.04,-0.41
