P_Pos, P_Vel, Altitude, Pressure, Acc_X, Acc_Y, Acc_Z, Latitude, Longitude, Altitude_GPS, LOCK, Satellites, q_w, q_x, q_y, q_z
0.07,0.36,0.064240,1007.984192,0.057283,-0.055344,0.040356,49.2466316223,-123.2302017212,87.099998,LOCKED,12,1.00,0.01,0.02,-0.06
0.07,0.36,0.036682,1007.987488,0.067767,-0.062241,0.038859,49.2466316223,-123.2302017212,87.099998,LOCKED,12,1.00,0.01,0.02,-0.06
0.08,0.36,0.036682,1007.987488,0.054777,-0.059120,0.023257,49.2466316223,-123.2302017212,87.099998,LOCKED,12,1.00,0.01,0.02,-0.06
0.08,0.36,-0.023560,1007.994690,0.061954,-0.051751,0.033931,49.2466316223,-123.2302017212,87.099998,LOCKED,12,1.00,0.01,0.02,-0.06
0.08,0.36,-0.023560,1007.994690,0.059202,-0.041112,0.042331,49.2466316223,-123.2302017212,87.099998,LOCKED,12,1.00,0.01,0.02,-0.06
0.09,0.37,0.043320,1007.986694,0.058499,-0.017032,0.036565,49.2466316223,-123.2302017212,87.099998,LOCKED,12,1.00,0.01,0.02,-0.06
0.09,0.38,0.043320,1007.986694,0.050661,-0.022786,0.051119,49.2466316223,-123.2302017212,87.099998,LOCKED,12,1.00,0.01,0.02,-0.06
0.10,0.38,0.056076,1007.985168,0.069492,-0.028106,0.042024,49.2466316223,-123.2302017212,87.099998,LOCKED,12,1.00,0.01,0.02,-0.06
0.10,0.39,0.056076,1007.985168,0.053574,-0.021228,0.049587,49.2466316223,-123.2302017212,87.099998,LOCKED,12,1.00,0.01,0.02,-0.06
0.10,0.39,0.029526,1007.988342,0.060128,-0.036335,0.045093,49.2466316223,-123.2302017212,87.099998,LOCKED,12,1.00,0.01,0.02,-0.06
0.11,0.39,0.029526,1007.988342,0.063064,-0.053445,0.038479,49.2466316223,-123.2302017212,87.099998,LOCKED,12,1.00,0.01,0.02,-0.06
0.12,0.40,0.169907,1007.971497,0.063646,-0.049302,0.041981,49.2466316223,-123.2302017212,87.099998,LOCKED,12,1.00,0.01,0.02,-0.06
0.13,0.41,0.169907,1007.971497,0.049855,-0.049989,0.035119,49.2466316223,-123.2302017212,87.099998,LOCKED,12,1.00,0.01,0.02,-0.06
0.13,0.42,0.083130,1007.981934,0.077875,-0.045601,0.044990,49.2466316223,-123.2302017212,87.099998,LOCKED,12,1.00,0.01,0.02,-0.06
0.14,0.43,0.083130,1007.981934,0.045685,-0.012764,0.074007,49.2466316223,-123.2302017212,87.099998,LOCKED,12,1.00,0.01,0.02,-0.06
0.14,0.43,0.029526,1007.988342,0.067214,-0.004686,0.021403,49.2466316223,-123.2302017212,87.099998,LOCKED,12,1.00,0.01,0.02,-0.06
0.14,0.43,0.029526,1007.988342,0.044631,0.000599,0.081204,49.2466316223,-123.2302017212,87.099998,LOCKED,12,1.00,0.01,0.02,-0.06
0.15,0.43,0.056076,1007.985168,0.064844,-0.029029,0.024808,49.2466316223,-123.2302017212,87.099998,LOCKED,12,1.00,0.01,0.02,-0.06
0.15,0.44,0.056076,1007.985168,0.043413,-0.018220,0.044877,49.2466316223,-123.2302017212,87.099998,LOCKED,12,1.00,0.01,0.02,-0.06
0.15,0.44,0.083130,1007.981934,0.060770,-0.039629,0.034967,49.2466316223,-123.2301940918,87.099998,LOCKED,12,1.00,0.01,0.02,-0.06
0.16,0.44,0.083130,1007.981934,0.059678,-0.044178,0.023163,49.2466316223,-123.2301940918,87.099998,LOCKED,12,1.00,0.01,0.02,-0.06
0.16,0.44,-0.028656,1007.995300,0.059594,-0.033398,0.051281,49.2466316223,-123.2301940918,87.099998,LOCKED,12,1.00,0.01,0.02,-0.06
0.16,0.43,-0.028656,1007.995300,0.050656,-0.035325,0.047879,49.2466316223,-123.2301940918,87.099998,LOCKED,12,1.00,0.01,0.02,-0.06
0.16,0.43,-0.086334,1008.002258,0.067138,-0.037134,0.035279,49.2466316223,-123.2301940918,87.099998,LOCKED,12,1.00,0.01,0.02,-0.06
0.15,0.42,-0.086334,1008.002258,0.046526,-0.028191,0.043553,49.2466316223,-123.2301940918,87.099998,LOCKED,12,1.00,0.01,0.02,-0.06
0.15,0.41,-0.020493,1007.994324,0.056767,-0.035212,0.015168,49.2466316223,-123.2301940918,87.099998,LOCKED,12,1.00,0.01,0.02,-0.06
0.15,0.41,-0.020493,1007.994324,0.025543,-0.026278,0.041659,49.2466316223,-123.2301940918,87.099998,LOCKED,12,1.00,0.01,0.02,-0.06
0.15,0.40,-0.006714,1007.992676,0.074061,-0.063810,-0.011801,49.2466316223,-123.2301940918,87.099998,LOCKED,12,1.00,0.01,0.02,-0.06
0.15,0.40,-0.006714,1007.992676,0.055572,0.002150,0.071143,49.2466316223,-123.2301940918,87.099998,LOCKED,12,1.00,0.01,0.02,-0.06
0.15,0.41,-0.104202,1008.004395,0.067813,0.025254,0.102599,49.2466316223,-123.2301940918,87.099998,LOCKED,12,1.00,0.01,0.02,-0.06
0.14,0.40,-0.104202,1008.004395,0.043789,-0.074226,0.008760,49.2466316223,-123.2301940918,87.099998,LOCKED,12,1.00,0.01,0.02,-0.06
0.14,0.38,-0.090927,1008.002808,0.051643,-0.061432,0.012473,49.2466316223,-123.2301940918,87.099998,LOCKED,12,1.00,0.01,0.02,-0.06
0.14,0.38,-0.090927,1008.002808,0.069436,-0.062125,0.043333,49.2466316223,-123.2301940918,87.099998,LOCKED,12,1.00,0.01,0.02,-0.06
0.14,0.38,-0.033249,1007.995850,0.060533,-0.065778,0.040396,49.2466316223,-123.2301940918,87.099998,LOCKED,12,1.00,0.01,0.02,-0.07
0.14,0.37,-0.033249,1007.995850,0.048258,-0.047107,0.031522,49.2466316223,-123.2301940918,87.099998,LOCKED,12,1.00,0.01,0.02,-0.07
0.14,0.37,0.006561,1007.991089,0.063632,-0.039687,0.014789,49.2466316223,-123.2301940918,87.099998,LOCKED,12,1.00,0.01,0.02,-0.07
0.14,0.36,0.006561,1007.991089,0.051096,-0.044515,0.022933,49.2466316223,-123.2301940918,87.099998,LOCKED,12,1.00,0.01,0.02,-0.07
0.14,0.36,-0.038361,1007.996460,0.054509,-0.037955,0.020043,49.2466316223,-123.2301940918,87.099998,LOCKED,12,1.00,0.01,0.02,-0.07
0.13,0.36,-0.038361,1007.996460,0.061460,-0.015768,0.047734,49.2466316223,-123.2301940918,87.099998,LOCKED,12,1.00,0.01,0.02,-0.07
0.13,0.36,-0.065414,1007.999695,0.066814,-0.020058,0.065278,49.2466316223,-123.2301940918,87.099998,LOCKED,12,1.00,0.01,0.02,-0.07
0.13,0.35,-0.065414,1007.999695,0.052262,-0.036915,0.035052,49.2466316223,-123.2301940918,87.099998,LOCKED,12,1.00,0.01,0.02,-0.07
0.13,0.35,-0.077652,1008.001221,0.057096,-0.055510,0.036839,49.2466316223,-123.2301940918,87.099998,LOCKED,12,1.00,0.01,0.02,-0.07
0.12,0.34,-0.077652,1008.001221,0.064991,-0.056234,0.038734,49.2466316223,-123.2301940918,87.099998,LOCKED,12,1.00,0.01,0.02,-0.07
0.12,0.34,-0.104202,1008.004395,0.057828,-0.040881,0.040125,49.2466316223,-123.2301940918,87.099998,LOCKED,12,1.00,0.01,0.02,-0.07
0.12,0.33,-0.104202,1008.004395,0.058051,-0.025689,0.050781,49.2466316223,-123.2301940918,87.099998,LOCKED,12,1.00,0.01,0.02,-0.07
0.11,0.32,-0.175659,1008.012939,0.057821,-0.034504,0.037359,49.2466316223,-123.2301940918,87.099998,LOCKED,12,1.00,0.01,0.02,-0.07
0.10,0.32,-0.175659,1008.012939,0.056551,-0.030436,0.038487,49.2466316223,-123.2301940918,87.099998,LOCKED,12,1.00,0.01,0.02,-0.07
0.10,0.31,-0.162903,1008.011414,0.049857,-0.037665,0.037069,49.2466316223,-123.2301940918,87.099998,LOCKED,12,1.00,0.01,0.02,-0.07
0.09,0.30,-0.162903,1008.011414,0.054461,-0.040725,0.035845,49.2466316223,-123.2301940918,87.099998,LOCKED,12,1.00,0.01,0.02,-0.07
0.08,0.29,-0.162903,1008.011414,0.060002,-0.038776,0.034967,49.2466316223,-123.2301940918,87.099998,LOCKED,12,1.00,0.01,0.02,-0.07
0.08,0.28,-0.162903,1008.011414,0.113751,-0.043355,0.007047,49.2466316223,-123.2301940918,87.099998,LOCKED,12,1.00,0.01,0.02,-0.07
0.07,0.27,-0.175659,1008.012939,-0.034387,-0.024766,0.011342,49.2466316223,-123.2301940918,87.099998,LOCKED,12,1.00,0.01,0.02,-0.07
0.07,0.26,-0.175659,1008.012939,0.099245,-0.056960,0.055617,49.2466316223,-123.2301940918,87.099998,LOCKED,12,1.00,0.01,0.02,-0.07
0.06,0.25,-0.162903,1008.011414,0.031224,-0.071012,-0.010437,49.2466316223,-123.2301940918,87.099998,LOCKED,12,1.00,0.01,0.02,-0.07
0.05,0.24,-0.162903,1008.011414,0.060330,-0.047434,-0.005317,49.2466316223,-123.2301940918,87.099998,LOCKED,12,1.00,0.01,0.02,-0.07
0.05,0.23,-0.175659,1008.012939,0.056007,-0.041303,0.020902,49.2466316223,-123.2301940918,87.099998,LOCKED,12,1.00,0.01,0.02,-0.07
0.04,0.22,-0.175659,1008.012939,0.044581,-0.036062,0.009219,49.2466316223,-123.2301940918,87.099998,LOCKED,12,1.00,0.01,0.02,-0.07
0.03,0.21,-0.229263,1008.019348,0.065389,-0.013805,0.076440,49.2466316223,-123.2301940918,87.099998,LOCKED,12,1.00,0.01,0.02,-0.07
0.03,0.21,-0.229263,1008.019348,0.061281,-0.025099,0.074364,49.2466316223,-123.2301940918,87.099998,LOCKED,12,1.00,0.01,0.02,-0.07
0.02,0.21,-0.157791,1008.010803,0.065979,-0.041070,0.024458,49.2466316223,-123.2301940918,87.099998,LOCKED,12,1.00,0.01,0.02,-0.07
0.02,0.20,-0.157791,1008.010803,0.070342,-0.041310,0.017686,49.2466316223,-123.2301940918,87.099998,LOCKED,12,1.00,0.01,0.02,-0.07
0.01,0.19,-0.216492,1008.017822,0.050053,-0.056674,0.028102,49.2466316223,-123.2301940918,87.099998,LOCKED,12,1.00,0.01,0.02,-0.07
0.00,0.18,-0.216492,1008.017822,0.062461,-0.082987,-0.004678,49.2466316223,-123.2301940918,87.099998,LOCKED,12,1.00,0.01,0.02,-0.07
0.00,0.17,-0.175659,1008.012939,0.061756,-0.031872,0.021902,49.2466316223,-123.2301940918,87.099998,LOCKED,12,1.00,0.01,0.02,-0.07
-0.00,0.17,-0.175659,1008.012939,0.062174,-0.002348,0.027185,49.2466316223,-123.2301940918,87.099998,LOCKED,12,1.00,0.01,0.02,-0.07
-0.01,0.16,-0.188934,1008.014526,0.036407,-0.035889,0.022731,49.2466316223,-123.2301940918,87.099998,LOCKED,12,1.00,0.01,0.02,-0.07
-0.01,0.16,-0.188934,1008.014526,0.048798,-0.060831,0.052251,49.2466316223,-123.2301940918,87.099998,LOCKED,12,1.00,0.01,0.02,-0.07
-0.02,0.16,-0.175659,1008.012939,0.043104,0.011571,0.067348,49.2466316223,-123.2301940918,87.099998,LOCKED,12,1.00,0.01,0.02,-0.07
-0.02,0.17,-0.175659,1008.012939,0.089643,-0.067045,0.067943,49.2466316223,-123.2301940918,87.099998,LOCKED,12,1.00,0.01,0.02,-0.07
-0.03,0.16,-0.175659,1008.012939,0.058988,-0.069141,0.026249,49.2466316223,-123.2301940918,87.099998,LOCKED,12,1.00,0.01,0.02,-0.07
-0.03,0.16,-0.175659,1008.012939,0.049672,-0.018423,0.039511,49.2466316223,-123.2301940918,87.099998,LOCKED,12,1.00,0.01,0.02,-0.07
-0.03,0.17,-0.149124,1008.009766,0.052178,-0.039945,0.054803,49.2466316223,-123.2301940918,87.099998,LOCKED,12,1.00,0.01,0.02,-0.07
-0.03,0.16,-0.149124,1008.009766,0.037988,-0.072547,-0.016442,49.2466316223,-123.2301940918,87.099998,LOCKED,12,1.00,0.01,0.02,-0.07
-0.04,0.14,-0.122574,1008.006592,0.068012,-0.077456,-0.034188,49.2466316223,-123.2301940918,87.099998,LOCKED,12,1.00,0.01,0.02,-0.08
-0.04,0.14,-0.122574,1008.006592,0.031321,-0.067285,-0.011098,49.2466316223,-123.2301940918,87.099998,LOCKED,12,1.00,0.01,0.02,-0.08
-0.04,0.12,-0.082260,1008.001770,0.078421,-0.098184,-0.089035,49.2466316223,-123.2301940918,87.099998,LOCKED,12,1.00,0.01,0.02,-0.08
-0.04,0.11,-0.082260,1008.001770,0.046971,-0.057876,-0.031462,49.2466316223,-123.2301940918,87.099998,LOCKED,12,1.00,0.01,0.02,-0.08
-0.04,0.11,-0.056213,1007.998596,0.085329,-0.098987,-0.017647,49.2466316223,-123.2301940918,87.099998,LOCKED,12,1.00,0.01,0.02,-0.08
-0.04,0.10,-0.056213,1007.998596,0.035530,-0.061463,-0.038588,49.2466316223,-123.2301940918,87.099998,LOCKED,12,1.00,0.01,0.02,-0.08
-0.03,0.09,-0.063873,1007.999512,0.063420,-0.030579,-0.013763,49.2466316223,-123.2301940918,87.099998,LOCKED,12,1.00,0.01,0.02,-0.08
-0.03,0.10,-0.063873,1007.999512,0.069053,-0.034645,0.037263,49.2466316223,-123.2301940918,87.099998,LOCKED,12,1.00,0.01,0.02,-0.08
-0.03,0.11,-0.010284,1007.993103,0.047103,-0.039706,0.030951,49.2466316223,-123.2301940918,87.099998,LOCKED,12,1.00,0.01,0.02,-0.08
-0.03,0.11,-0.010284,1007.993103,0.047478,-0.026067,0.036264,49.2466316223,-123.2301940918,87.099998,LOCKED,12,1.00,0.01,0.02,-0.08
-0.02,0.13,0.104050,1007.979431,0.077470,-0.047362,0.035780,49.2466316223,-123.2301940918,87.099998,LOCKED,12,1.00,0.01,0.02,-0.08
-0.01,0.14,0.104050,1007.979431,0.066054,-0.023075,0.030967,49.2466316223,-123.2301940918,87.099998,LOCKED,12,1.00,0.01,0.02,-0.08
-0.00,0.16,0.147949,1007.974121,0.046621,-0.023619,0.039022,49.2466316223,-123.2301940918,87.099998,LOCKED,12,1.00,0.01,0.02,-0.08
0.01,0.17,0.147949,1007.974121,0.072390,-0.010205,0.048017,49.2466316223,-123.2301940918,87.099998,LOCKED,12,1.00,0.01,0.02,-0.08
0.01,0.18,0.090271,1007.981079,0.054250,-0.011456,0.038920,49.2466316223,-123.2301940918,87.099998,LOCKED,12,1.00,0.01,0.02,-0.08
0.02,0.19,0.090271,1007.981079,0.057975,-0.022530,0.028096,49.2466316223,-123.2301940918,87.099998,LOCKED,12,1.00,0.01,0.02,-0.08
0.03,0.21,0.161743,1007.972473,0.060975,-0.037814,0.027994,49.2466316223,-123.2301940918,87.099998,LOCKED,12,1.00,0.01,0.02,-0.08
0.04,0.22,0.161743,1007.972473,0.064463,-0.030700,0.040919,49.2466316223,-123.2301940918,87.099998,LOCKED,12,1.00,0.01,0.02,-0.08
0.05,0.23,0.116302,1007.977905,0.054709,-0.027684,0.032295,49.2466316223,-123.2301940918,87.099998,LOCKED,12,1.00,0.01,0.02,-0.08
0.05,0.24,0.116302,1007.977905,0.058516,-0.027804,0.039965,49.2466316223,-123.2301940918,87.099998,LOCKED,12,1.00,0.01,0.02,-0.08
0.06,0.26,0.174500,1007.970947,0.066444,-0.016219,0.065994,49.2466316223,-123.2301940918,87.099998,LOCKED,12,1.00,0.01,0.02,-0.08
0.07,0.27,0.174500,1007.970947,0.055396,-0.014903,0.060574,49.2466316223,-123.2301940918,87.099998,LOCKED,12,1.00,0.01,0.02,-0.08
0.08,0.28,0.050461,1007.985840,0.074194,0.014044,0.064301,49.2466316223,-123.2301940918,87.099998,LOCKED,12,1.00,0.01,0.02,-0.08
0.08,0.30,0.050461,1007.985840,0.049260,0.017193,0.071675,49.2466316223,-123.2301940918,87.099998,LOCKED,12,1.00,0.01,0.02,-0.08
0.08,0.30,0.010651,1007.990601,0.073548,-0.019723,0.056387,49.2466316223,-123.2301940918,87.099998,LOCKED,12,1.00,0.01,0.02,-0.08
0.08,0.30,0.010651,1007.990601,0.048642,-0.043534,0.017800,49.2466316223,-123.2301940918,87.099998,LOCKED,12,1.00,0.01,0.02,-0.09
0.09,0.30,-0.002625,1007.992188,0.062788,-0.050360,0.030816,49.2466316223,-123.2301940918,87.099998,LOCKED,12,1.00,0.01,0.02,-0.09
0.09,0.31,-0.002625,1007.992188,0.066313,-0.033128,0.052014,49.2466316223,-123.2301940918,87.099998,LOCKED,12,1.00,0.01,0.02,-0.09
0.09,0.30,-0.056213,1007.992188,0.054871,-0.028127,0.036900,49.2466316223,-123.2301940918,87.099998,LOCKED,12,1.00,0.01,0.02,-0.09
0.09,0.30,-0.056213,1007.998596,0.057043,-0.024776,0.038097,49.2466316223,-123.2301940918,87.099998,LOCKED,12,1.00,0.01,0.02,-0.09
0.08,0.30,-0.056213,1007.998596,0.064016,-0.025076,0.031966,49.2466316223,-123.2301940918,87.099998,LOCKED,12,1.00,0.01,0.02,-0.09
0.08,0.30,-0.130234,1008.007507,0.044238,0.019370,0.062894,49.2466316223,-123.2301940918,87.099998,LOCKED,12,1.00,0.01,0.02,-0.09
0.08,0.29,-0.130234,1008.007507,0.040773,-0.038366,0.020368,49.2466316223,-123.2301940918,87.099998,LOCKED,12,1.00,0.01,0.02,-0.09
0.07,0.29,-0.142990,1008.009033,0.084200,-0.000845,0.058558,49.2466316223,-123.2301940918,87.099998,LOCKED,12,1.00,0.01,0.02,-0.09
0.07,0.29,-0.142990,1008.009033,0.064090,-0.025125,0.057614,49.2466316223,-123.2301940918,87.099998,LOCKED,12,1.00,0.01,0.02,-0.09
0.06,0.29,-0.104202,1008.004395,0.064128,-0.044424,0.039669,49.2466316223,-123.2301940918,87.099998,LOCKED,12,1.00,0.01,0.02,-0.09
0.06,0.28,-0.104202,1008.004395,0.059003,-0.030058,0.021795,49.2466316223,-123.2301940918,87.099998,LOCKED,12,1.00,0.01,0.02,-0.09
0.06,0.28,-0.104202,1008.004395,0.069450,-0.041724,0.052945,49.2466316223,-123.2301940918,87.099998,LOCKED,12,1.00,0.01,0.02,-0.09
0.06,0.28,-0.104202,1008.004395,0.078423,-0.010409,0.056122,49.2466316223,-123.2301940918,87.099998,LOCKED,12,1.00,0.01,0.02,-0.09
0.06,0.28,-0.063873,1007.999512,0.018266,0.004589,0.045991,49.2466316223,-123.2301940918,87.099998,LOCKED,12,1.00,0.01,0.02,-0.09
0.06,0.29,-0.063873,1007.999512,0.061152,-0.033135,0.056836,49.2466316223,-123.2301940918,87.099998,LOCKED,12,1.00,0.01,0.02,-0.09
0.06,0.29,-0.063873,1007.999512,0.119136,-0.066744,0.043303,49.2466316223,-123.2301940918,87.099998,LOCKED,12,1.00,0.01,0.02,-0.09
0.06,0.28,-0.063873,1007.999512,-0.029107,-0.022376,0.021410,49.2466316223,-123.2301940918,87.099998,LOCKED,12,1.00,0.01,0.02,-0.09
0.06,0.28,-0.051117,1007.997986,0.053404,-0.007070,0.022177,49.2466316223,-123.2301940918,87.099998,LOCKED,12,1.00,0.01,0.02,-0.09
0.06,0.28,-0.051117,1007.997986,0.101103,-0.064808,0.023723,49.2466316223,-123.2301940918,87.099998,LOCKED,12,1.00,0.01,0.02,-0.09
0.06,0.28,-0.023560,1007.994690,0.106224,-0.039437,0.055496,49.2466316223,-123.2301940918,87.099998,LOCKED,12,1.00,0.01,0.02,-0.09
0.06,0.28,-0.023560,1007.994690,0.057635,-0.024912,0.025854,49.2466316223,-123.2301940918,87.099998,LOCKED,12,1.00,0.01,0.02,-0.09
0.06,0.28,-0.121552,1008.006470,0.053069,-0.022762,0.009696,49.2466316223,-123.2301940918,87.099998,LOCKED,12,1.00,0.01,0.02,-0.09
0.05,0.27,-0.121552,1008.006470,0.058531,-0.017683,0.050627,49.2466316223,-123.2301940918,87.099998,LOCKED,12,1.00,0.01,0.02,-0.09
0.05,0.27,-0.107773,1008.004822,0.054032,0.007671,0.023656,49.2466316223,-123.2301940918,87.099998,LOCKED,12,1.00,0.01,0.02,-0.09
0.05,0.27,-0.107773,1008.004822,0.083210,-0.017628,0.036984,49.2466316223,-123.2301940918,87.099998,LOCKED,12,1.00,0.01,0.02,-0.10
0.05,0.27,-0.095016,1008.003296,0.042787,-0.059863,0.037511,49.2466316223,-123.2301940918,87.099998,LOCKED,12,1.00,0.01,0.02,-0.10
0.05,0.26,-0.095016,1008.003296,0.056961,-0.042243,0.025070,49.2466316223,-123.2301940918,87.099998,LOCKED,12,1.00,0.01,0.02,-0.10
0.04,0.26,-0.107773,1008.004822,0.062717,-0.037250,0.058655,49.2466316223,-123.2301940918,87.099998,LOCKED,12,1.00,0.01,0.02,-0.10
0.04,0.27,-0.107773,1008.004822,0.077132,-0.062904,0.053478,49.2466316223,-123.2301940918,87.099998,LOCKED,12,1.00,0.01,0.02,-0.10
0.04,0.27,-0.010284,1007.993103,0.052985,-0.033514,0.028067,49.2466316223,-123.2301940918,87.099998,LOCKED,12,1.00,0.01,0.02,-0.10
0.05,0.27,-0.010284,1007.993103,0.061253,-0.010362,0.024520,49.2466316223,-123.2301940918,87.099998,LOCKED,12,1.00,0.01,0.02,-0.10
0.04,0.26,-0.107773,1008.004822,0.058223,-0.038553,0.029720,49.2466316223,-123.2301940918,87.099998,LOCKED,12,1.00,0.01,0.02,-0.10
0.04,0.26,-0.107773,1008.004822,0.061008,-0.026299,0.031067,49.2466316223,-123.2301940918,87.099998,LOCKED,12,1.00,0.01,0.02,-0.10
0.04,0.26,-0.037842,1007.996399,0.057242,-0.012151,0.038328,49.2466316223,-123.2301940918,87.099998,LOCKED,12,1.00,0.01,0.02,-0.10
0.04,0.27,-0.037842,1007.996399,0.062233,-0.050761,0.045204,49.2466316223,-123.2301940918,87.099998,LOCKED,12,1.00,0.01,0.02,-0.10
0.05,0.27,-0.023560,1007.994690,0.052472,-0.054155,0.040624,49.2466316223,-123.2301940918,87.099998,LOCKED,12,0.99,0.01,0.02,-0.10
0.05,0.27,-0.023560,1007.994690,0.064111,-0.042523,0.040891,49.2466316223,-123.2301940918,87.099998,LOCKED,12,0.99,0.01,0.02,-0.10
0.05,0.27,-0.107773,1008.004822,0.046745,-0.031991,0.039805,49.2466316223,-123.2301940918,87.099998,LOCKED,12,0.99,0.01,0.02,-0.10
0.04,0.27,-0.107773,1008.004822,0.069428,-0.036596,0.031268,49.2466316223,-123.2301940918,87.099998,LOCKED,12,0.99,0.01,0.02,-0.10
0.04,0.27,-0.121552,1008.006470,0.052097,-0.016097,0.047490,49.2466316223,-123.2301940918,87.099998,LOCKED,12,0.99,0.01,0.02,-0.10
0.04,0.27,-0.121552,1008.006470,0.070078,-0.014848,0.040728,49.2466316223,-123.2301940918,87.099998,LOCKED,12,0.99,0.01,0.02,-0.10
0.04,0.27,-0.107773,1008.004822,0.059873,-0.040310,0.047428,49.2466316223,-123.2301940918,87.099998,LOCKED,12,0.99,0.01,0.02,-0.10
0.04,0.27,-0.107773,1008.004822,0.057951,-0.048182,0.036584,49.2466316223,-123.2301940918,87.099998,LOCKED,12,0.99,0.01,0.02,-0.10
0.04,0.27,0.015747,1007.989990,0.064886,-0.013536,0.059051,49.2466316223,-123.2301940918,87.099998,LOCKED,12,0.99,0.01,0.02,-0.10
0.04,0.29,0.015747,1007.989990,0.060761,-0.028671,0.069387,49.2466316223,-123.2301940918,87.099998,LOCKED,12,0.99,0.01,0.02,-0.10
0.05,0.29,-0.002121,1007.992126,0.054269,-0.011256,0.055845,49.2466316223,-123.2301940918,87.099998,LOCKED,12,0.99,0.01,0.02,-0.10
0.05,0.30,-0.002121,1007.992126,0.067352,-0.009338,0.048062,49.2466316223,-123.2301940918,87.099998,LOCKED,12,0.99,0.01,0.02,-0.10
0.05,0.30,-0.015900,1007.993774,0.062498,-0.027421,0.043443,49.2466316223,-123.2301940918,87.099998,LOCKED,12,0.99,0.01,0.02,-0.10
0.05,0.30,-0.015900,1007.993774,0.058861,-0.037861,0.032598,49.2466316223,-123.2301940918,87.099998,LOCKED,12,0.99,0.01,0.02,-0.10
0.06,0.31,-0.041931,1007.996887,0.051961,-0.033267,0.039313,49.2466316223,-123.2301940918,87.099998,LOCKED,12,0.99,0.01,0.02,-0.10
0.06,0.30,-0.041931,1007.996887,0.065081,-0.057201,0.024611,49.2466316223,-123.2301940918,87.099998,LOCKED,12,0.99,0.01,0.02,-0.10
0.05,0.30,-0.166977,1008.011902,0.049799,-0.051231,0.037296,49.2466316223,-123.2301940918,87.099998,LOCKED,12,0.99,0.01,0.02,-0.10
0.05,0.29,-0.166977,1008.011902,0.053769,-0.032225,0.030226,49.2466316223,-123.2301940918,87.199997,LOCKED,12,0.99,0.01,0.02,-0.10
0.04,0.28,-0.211395,1008.017212,0.053174,-0.025032,0.039449,49.2466316223,-123.2301940918,87.199997,LOCKED,12,0.99,0.01,0.02,-0.10
0.03,0.28,-0.211395,1008.017212,0.063956,-0.022782,0.044960,49.2466316223,-123.2301940918,87.199997,LOCKED,12,0.99,0.01,0.02,-0.10
0.03,0.28,-0.153717,1008.010315,0.059127,-0.020733,0.043723,49.2466316223,-123.2301940918,87.199997,LOCKED,12,0.99,0.01,0.02,-0.10
0.03,0.27,-0.153717,1008.010315,0.065818,-0.028206,0.044280,49.2466316223,-123.2301940918,87.199997,LOCKED,12,0.99,0.01,0.02,-0.10
0.03,0.27,-0.153717,1008.010315,0.060988,-0.042918,0.054878,49.2466316223,-123.2301940918,87.199997,LOCKED,12,0.99,0.01,0.02,-0.10
0.02,0.27,-0.153717,1008.010315,0.062264,-0.035920,0.037155,49.2466316223,-123.2301940918,87.199997,LOCKED,12,0.99,0.01,0.02,-0.10
0.02,0.27,-0.153717,1008.010315,0.060082,-0.034837,0.042390,49.2466316223,-123.2301940918,87.199997,LOCKED,12,0.99,0.01,0.02,-0.10
0.02,0.27,-0.153717,1008.010315,0.061629,-0.038981,0.045413,49.2466316223,-123.2301940918,87.199997,LOCKED,12,0.99,0.01,0.02,-0.10
0.01,0.26,-0.170563,1008.012329,0.061115,-0.032852,0.030419,49.2466316223,-123.2301940918,87.199997,LOCKED,12,0.99,0.01,0.02,-0.10
0.01,0.26,-0.170563,1008.012329,0.054732,-0.019953,0.035354,49.2466316223,-123.2301940918,87.199997,LOCKED,12,0.99,0.01,0.02,-0.10
0.01,0.26,-0.126144,1008.007019,0.060177,-0.034725,0.035543,49.2466316223,-123.2301940918,87.199997,LOCKED,12,0.99,0.01,0.02,-0.10
0.01,0.25,-0.126144,1008.007019,0.063742,-0.039966,0.036268,49.2466316223,-123.2301940918,87.199997,LOCKED,12,0.99,0.01,0.02,-0.10
0.01,0.25,-0.113388,1008.005493,0.054392,-0.044382,0.037738,49.2466316223,-123.2301940918,87.199997,LOCKED,12,0.99,0.01,0.02,-0.10
0.00,0.25,-0.113388,1008.005493,0.065292,-0.034503,0.038533,49.2466316223,-123.2301940918,87.199997,LOCKED,12,0.99,0.01,0.02,-0.10
0.01,0.26,-0.041931,1007.996887,0.052904,-0.037842,0.043806,49.2466316223,-123.2301940918,87.199997,LOCKED,12,0.99,0.01,0.02,-0.10
0.01,0.26,-0.041931,1007.996887,0.059704,-0.023408,0.043641,49.2466316223,-123.2301940918,87.199997,LOCKED,12,0.99,0.01,0.02,-0.10
0.01,0.27,-0.055710,1007.998535,0.061663,-0.026792,0.048866,49.2466316223,-123.2301940918,87.199997,LOCKED,12,0.99,0.01,0.02,-0.10
0.01,0.27,-0.055710,1007.998535,0.063234,-0.032279,0.043059,49.2466316223,-123.2301940918,87.199997,LOCKED,12,0.99,0.01,0.02,-0.10
0.01,0.27,-0.107773,1008.004822,0.062232,-0.031039,0.040435,49.2466316223,-123.2301940918,87.199997,LOCKED,12,0.99,0.01,0.02,-0.10
0.01,0.27,-0.107773,1008.004822,0.065331,-0.033556,0.033663,49.2466316223,-123.2301940918,87.199997,LOCKED,12,0.99,0.01,0.02,-0.10
0.01,0.27,-0.135330,1008.008118,0.053461,-0.051614,0.038824,49.2466316223,-123.2301940918,87.199997,LOCKED,12,0.99,0.01,0.02,-0.10
0.01,0.27,-0.135330,1008.008118,0.056714,-0.041571,0.035267,49.2466316223,-123.2301940918,87.199997,LOCKED,12,0.99,0.01,0.02,-0.10
0.01,0.27,-0.135330,1008.008118,0.058130,-0.032528,0.040800,49.2466316223,-123.2301940918,87.199997,LOCKED,12,0.99,0.01,0.02,-0.10
0.01,0.27,-0.135330,1008.008118,0.062898,-0.032552,0.034754,49.2466278076,-123.2301940918,87.400002,LOCKED,12,0.99,0.01,0.02,-0.10
0.01,0.27,-0.063873,1007.999512,0.065386,-0.039993,0.034727,49.2466278076,-123.2301940918,87.400002,LOCKED,12,0.99,0.01,0.02,-0.10
0.01,0.27,-0.063873,1007.999512,0.057779,-0.026005,0.033389,49.2466278076,-123.2301940918,87.400002,LOCKED,12,0.99,0.01,0.02,-0.11
0.01,0.27,-0.116959,1008.005920,0.057808,-0.033397,0.040543,49.2466278076,-123.2301940918,87.400002,LOCKED,12,0.99,0.01,0.02,-0.11
0.01,0.27,-0.116959,1008.005920,0.061123,-0.044232,0.043092,49.2466278076,-123.2301940918,87.400002,LOCKED,12,0.99,0.01,0.02,-0.11
0.01,0.27,-0.130234,1008.007507,0.068469,-0.035738,0.044974,49.2466278076,-123.2301940918,87.400002,LOCKED,12,0.99,0.01,0.02,-0.11
0.00,0.27,-0.130234,1008.007507,0.056162,-0.035505,0.036644,49.2466278076,-123.2301940918,87.400002,LOCKED,12,0.99,0.01,0.02,-0.11
0.01,0.27,-0.090424,1008.002747,0.064135,-0.040379,0.042091,49.2466278076,-123.2301940918,87.400002,LOCKED,12,0.99,0.01,0.02,-0.11
0.01,0.27,-0.090424,1008.002747,0.061145,-0.024972,0.035976,49.2466278076,-123.2301940918,87.400002,LOCKED,12,0.99,0.01,0.02,-0.11
0.01,0.28,-0.063873,1007.999512,0.056135,-0.031923,0.041129,49.2466278076,-123.2301940918,87.400002,LOCKED,12,0.99,0.01,0.02,-0.11
0.01,0.28,-0.063873,1007.999512,0.061558,-0.047135,0.034942,49.2466278076,-123.2301940918,87.400002,LOCKED,12,0.99,0.01,0.02,-0.11
0.01,0.28,-0.037842,1007.996399,0.057250,-0.043463,0.033721,49.2466278076,-123.2301940918,87.400002,LOCKED,12,0.99,0.01,0.02,-0.11
0.01,0.29,-0.037842,1007.996399,0.059813,-0.039398,0.039343,49.2466278076,-123.2301940918,87.400002,LOCKED,12,0.99,0.01,0.02,-0.11
0.02,0.29,-0.063873,1007.999512,0.062738,-0.044778,0.036660,49.2466278076,-123.2301940918,87.400002,LOCKED,12,0.99,0.01,0.02,-0.11
0.02,0.29,-0.063873,1007.999512,0.062969,-0.037837,0.034372,49.2466278076,-123.2301940918,87.400002,LOCKED,12,0.99,0.01,0.02,-0.11
0.02,0.29,-0.063873,1007.999512,0.061010,-0.027460,0.041050,49.2466278076,-123.2301940918,87.400002,LOCKED,12,0.99,0.01,0.02,-0.11
0.02,0.29,-0.063873,1007.999512,0.061253,-0.028966,0.044428,49.2466278076,-123.2301940918,87.400002,LOCKED,12,0.99,0.01,0.02,-0.11
0.02,0.30,-0.104202,1008.004395,0.065115,-0.030382,0.048647,49.2466278076,-123.2301940918,87.400002,LOCKED,12,0.99,0.01,0.02,-0.11
0.02,0.30,-0.104202,1008.004395,0.055211,-0.030145,0.042426,49.2466278076,-123.2301940918,87.400002,LOCKED,12,0.99,0.01,0.02,-0.11
0.02,0.30,-0.082260,1008.001770,0.057720,-0.032820,0.046177,49.2466278076,-123.2301940918,87.400002,LOCKED,12,0.99,0.01,0.02,-0.11
0.02,0.30,-0.082260,1008.001770,0.058713,-0.042803,0.045161,49.2466278076,-123.2301940918,87.400002,LOCKED,12,0.99,0.01,0.02,-0.11
0.02,0.30,-0.142990,1008.009033,0.060315,-0.047985,0.038130,49.2466278076,-123.2301940918,87.400002,LOCKED,12,0.99,0.01,0.02,-0.11
0.02,0.30,-0.142990,1008.009033,0.057524,-0.035133,0.041239,49.2466278076,-123.2301940918,87.400002,LOCKED,12,0.99,0.01,0.02,-0.11
0.02,0.30,-0.130234,1008.007507,0.057554,-0.041369,0.037173,49.2466278076,-123.2301940918,87.400002,LOCKED,12,0.99,0.01,0.02,-0.11
0.02,0.29,-0.130234,1008.007507,0.056741,-0.032577,0.037909,49.2466278076,-123.2301940918,87.400002,LOCKED,12,0.99,0.01,0.02,-0.11
0.02,0.29,-0.090424,1008.002747,0.057715,-0.029913,0.035739,49.2466278076,-123.2301940918,87.400002,LOCKED,12,0.99,0.01,0.02,-0.11
0.02,0.30,-0.090424,1008.002747,0.061430,-0.040156,0.041944,49.2466278076,-123.2301940918,87.400002,LOCKED,12,0.99,0.01,0.02,-0.11
0.02,0.30,-0.090424,1008.002747,0.065831,-0.039418,0.047907,49.2466278076,-123.2301940918,87.400002,LOCKED,12,0.99,0.01,0.02,-0.11
0.02,0.30,-0.090424,1008.002747,0.057015,-0.033869,0.051551,49.2466278076,-123.2301940918,87.400002,LOCKED,12,0.99,0.01,0.02,-0.11
0.02,0.30,-0.063873,1008.002747,0.059281,-0.034653,0.045092,49.2466278076,-123.2301940918,87.400002,LOCKED,12,0.99,0.01,0.02,-0.11
0.02,0.31,-0.063873,1007.999512,0.060274,-0.030231,0.044433,49.2466278076,-123.2301940918,87.400002,LOCKED,12,0.99,0.01,0.02,-0.11
0.02,0.31,-0.076645,1007.999512,0.060057,-0.031401,0.039035,49.2466278076,-123.2301940918,87.400002,LOCKED,12,0.99,0.01,0.02,-0.11
0.02,0.31,-0.148605,1008.009705,0.063500,-0.035435,0.041492,49.2466278076,-123.2301940918,87.400002,LOCKED,12,0.99,0.01,0.02,-0.11
0.02,0.31,-0.051117,1008.009705,0.057501,-0.036186,0.034366,49.2466278076,-123.2301940918,87.400002,LOCKED,12,0.99,0.01,0.02,-0.11
0.02,0.31,-0.051117,1007.997986,0.054758,-0.039504,0.036827,49.2466278076,-123.2301940918,87.400002,LOCKED,12,0.99,0.01,0.02,-0.11
0.03,0.31,-0.051117,1007.997986,0.059754,-0.048740,0.033965,49.2466278076,-123.2301940918,87.400002,LOCKED,12,0.99,0.01,0.02,-0.11
0.03,0.31,-0.121552,1008.006470,0.056689,-0.047475,0.030935,49.2466278076,-123.2301940918,87.400002,LOCKED,12,0.99,0.01,0.02,-0.11
0.02,0.31,-0.121552,1008.006470,0.059780,-0.045780,0.034036,49.2466278076,-123.2301940918,87.400002,LOCKED,12,0.99,0.01,0.02,-0.11
0.02,0.30,-0.161362,1008.011230,0.061708,-0.032185,0.041392,49.2466278076,-123.2301940918,87.400002,LOCKED,12,0.99,0.01,0.02,-0.11
0.02,0.30,-0.161362,1008.011230,0.066690,-0.035748,0.038673,49.2466278076,-123.2301940918,87.400002,LOCKED,12,0.99,0.01,0.02,-0.11
0.02,0.30,-0.175156,1008.012878,0.049386,-0.035192,0.040313,49.2466278076,-123.2301940918,87.400002,LOCKED,12,0.99,0.01,0.02,-0.11
0.01,0.29,-0.175156,1008.012878,0.056185,-0.034177,0.041060,49.2466278076,-123.2301940918,87.400002,LOCKED,12,0.99,0.01,0.02,-0.11
0.01,0.29,-0.161362,1008.011230,0.056425,-0.039427,0.040916,49.2466278076,-123.2301940918,87.400002,LOCKED,12,0.99,0.01,0.02,-0.11
0.01,0.29,-0.161362,1008.011230,0.060510,-0.041260,0.045846,49.2466278076,-123.2301940918,87.400002,LOCKED,12,0.99,0.01,0.02,-0.11
0.00,0.29,-0.202209,1008.016113,0.061711,-0.040396,0.041671,49.2466278076,-123.2301940918,87.400002,LOCKED,12,0.99,0.01,0.02,-0.11
-0.00,0.28,-0.202209,1008.016113,0.055161,-0.037774,0.036851,49.2466278076,-123.2301940918,87.400002,LOCKED,12,0.99,0.01,0.02,-0.11
0.00,0.28,-0.090424,1008.002747,0.060904,-0.039509,0.033658,49.2466278076,-123.2301940918,87.400002,LOCKED,12,0.99,0.01,0.02,-0.11
0.00,0.28,-0.090424,1008.002747,0.063214,-0.034106,0.035666,49.2466278076,-123.2301940918,87.400002,LOCKED,12,0.99,0.01,0.02,-0.11
-0.00,0.28,-0.148605,1008.009705,0.058637,-0.037902,0.036227,49.2466278076,-123.2301940918,87.400002,LOCKED,12,0.99,0.01,0.02,-0.11
-0.00,0.28,-0.148605,1008.009705,0.058944,-0.043504,0.034361,49.2466278076,-123.2301940918,87.400002,LOCKED,12,0.99,0.01,0.02,-0.11
-0.00,0.28,-0.161362,1008.011230,0.053230,-0.044765,0.035763,49.2466278076,-123.2301940918,87.400002,LOCKED,12,0.99,0.01,0.02,-0.11
-0.01,0.27,-0.161362,1008.011230,0.064412,-0.042708,0.041507,49.2466278076,-123.2301940918,87.400002,LOCKED,12,0.99,0.01,0.02,-0.11
-0.01,0.27,-0.148605,1008.009705,0.063244,-0.034832,0.047622,49.2466278076,-123.2301940918,87.400002,LOCKED,12,0.99,0.01,0.02,-0.11
-0.01,0.27,-0.148605,1008.009705,0.063414,-0.027905,0.044623,49.2466278076,-123.2301940918,87.400002,LOCKED,12,0.99,0.01,0.02,-0.11
-0.01,0.28,-0.063873,1007.999512,0.057331,-0.030547,0.040625,49.2466278076,-123.2301940918,87.400002,LOCKED,12,0.99,0.01,0.02,-0.12
-0.00,0.28,-0.063873,1007.999512,0.062493,-0.036537,0.047606,49.2466278076,-123.2301940918,87.400002,LOCKED,12,0.99,0.01,0.02,-0.12
-0.01,0.28,-0.148605,1008.009705,0.062130,-0.036263,0.043716,49.2466278076,-123.2301940918,87.400002,LOCKED,12,0.99,0.01,0.02,-0.12
-0.01,0.28,-0.148605,1008.009705,0.058184,-0.032798,0.037845,49.2466278076,-123.2301940918,87.400002,LOCKED,12,0.99,0.01,0.02,-0.12
-0.01,0.28,-0.135330,1008.008118,0.054548,-0.042490,0.041631,49.2466278076,-123.2301940918,87.400002,LOCKED,12,0.99,0.01,0.02,-0.12
-0.01,0.28,-0.135330,1008.008118,0.063416,-0.048791,0.032583,49.2466278076,-123.2301940918,87.400002,LOCKED,12,0.99,0.01,0.02,-0.12
-0.01,0.27,-0.220581,1008.018311,0.059744,-0.037772,0.029833,49.2466278076,-123.2301940918,87.400002,LOCKED,12,0.99,0.01,0.02,-0.12
-0.02,0.27,-0.220581,1008.018311,0.058171,-0.039701,0.032528,49.2466278076,-123.2301940918,87.400002,LOCKED,12,0.99,0.01,0.02,-0.12
-0.02,0.27,-0.095016,1008.003296,0.057050,-0.037104,0.034595,49.2466278076,-123.2301940918,87.400002,LOCKED,12,0.99,0.01,0.02,-0.12
-0.01,0.27,-0.095016,1008.003296,0.060790,-0.040086,0.044640,49.2466278076,-123.2301940918,87.400002,LOCKED,12,0.99,0.01,0.02,-0.12
-0.01,0.28,-0.081741,1008.001709,0.050210,-0.040650,0.046728,49.2466278076,-123.2301940918,87.400002,LOCKED,12,0.99,0.01,0.02,-0.12
-0.01,0.28,-0.081741,1008.001709,0.064895,-0.042503,0.042955,49.2466278076,-123.2301940918,87.400002,LOCKED,12,0.99,0.01,0.02,-0.12
-0.01,0.29,0.002472,1007.991577,0.058118,-0.041647,0.051784,49.2466278076,-123.2301940918,87.400002,LOCKED,12,0.99,0.01,0.02,-0.12
0.00,0.30,0.002472,1007.991577,0.060806,-0.037798,0.035660,49.2466278076,-123.2301940918,87.400002,LOCKED,12,0.99,0.01,0.02,-0.12
0.00,0.30,-0.055710,1007.998535,0.054091,-0.038098,0.043720,49.2466278076,-123.2301940918,87.400002,LOCKED,12,0.99,0.01,0.02,-0.12
0.01,0.31,-0.055710,1007.998535,0.060160,-0.036616,0.036448,49.2466278076,-123.2301940918,87.400002,LOCKED,12,0.99,0.01,0.02,-0.12
0.01,0.31,-0.041931,1007.996887,0.060640,-0.039370,0.039777,49.2466278076,-123.2301940918,87.400002,LOCKED,12,0.99,0.01,0.02,-0.12
0.01,0.31,-0.041931,1007.996887,0.061354,-0.041592,0.039935,49.2466278076,-123.2301940918,87.400002,LOCKED,12,0.99,0.01,0.02,-0.12
0.02,0.32,-0.041931,1007.996887,0.053594,-0.043442,0.039438,49.2466278076,-123.2301940918,87.400002,LOCKED,12,0.99,0.01,0.02,-0.12
0.02,0.32,-0.041931,1007.996887,0.059067,-0.046099,0.030366,49.2466278076,-123.2301940918,87.400002,LOCKED,12,0.99,0.01,0.02,-0.12
0.02,0.32,-0.010284,1007.993103,0.058340,-0.045443,0.039453,49.2466278076,-123.2301940918,87.400002,LOCKED,12,0.99,0.01,0.02,-0.12
0.03,0.33,-0.010284,1007.993103,0.062624,-0.041944,0.037924,49.2466278076,-123.2301940918,87.400002,LOCKED,12,0.99,0.01,0.02,-0.12
0.03,0.34,0.050461,1007.985840,0.062094,-0.033893,0.045007,49.2466278076,-123.2301940918,87.400002,LOCKED,12,0.99,0.01,0.02,-0.12
0.04,0.35,0.050461,1007.985840,0.061292,-0.029910,0.045636,49.2466278076,-123.2301940918,87.400002,LOCKED,12,0.99,0.01,0.02,-0.12
0.05,0.35,0.050461,1007.985840,0.060671,-0.030890,0.043922,49.2466278076,-123.2301940918,87.400002,LOCKED,12,0.99,0.01,0.02,-0.12
0.05,0.36,0.050461,1007.985840,0.063951,-0.036078,0.045615,49.2466278076,-123.2301940918,87.400002,LOCKED,12,0.99,0.01,0.02,-0.12
0.06,0.37,0.036682,1007.987488,0.060676,-0.042999,0.042364,49.2466278076,-123.2301940918,87.400002,LOCKED,12,0.99,0.01,0.02,-0.12
0.06,0.37,0.036682,1007.987488,0.060131,-0.041485,0.038760,49.2466278076,-123.2301940918,87.400002,LOCKED,12,0.99,0.01,0.02,-0.12
0.07,0.38,0.015747,1007.989990,0.060014,-0.040403,0.040749,49.2466278076,-123.2301940918,87.400002,LOCKED,12,0.99,0.01,0.02,-0.12
0.07,0.38,0.015747,1007.989990,0.060946,-0.039044,0.037331,49.2466278076,-123.2301940918,87.400002,LOCKED,12,0.99,0.01,0.02,-0.12
0.08,0.39,0.043320,1007.986694,0.060975,-0.037818,0.036631,49.2466278076,-123.2301940918,87.400002,LOCKED,12,0.99,0.01,0.02,-0.12
0.08,0.39,0.043320,1007.986694,0.058905,-0.038500,0.034245,49.2466278076,-123.2301940918,87.400002,LOCKED,12,0.99,0.01,0.02,-0.12
0.09,0.39,0.015747,1007.989990,0.057886,-0.037170,0.026743,49.2466278076,-123.2301940918,87.400002,LOCKED,12,0.99,0.01,0.02,-0.12
0.09,0.39,0.015747,1007.989990,0.057050,-0.040472,0.035478,49.2466278076,-123.2301940918,87.400002,LOCKED,12,0.99,0.01,0.02,-0.12
0.10,0.40,0.029526,1007.988342,0.059196,-0.044161,0.036518,49.2466278076,-123.2301940918,87.400002,LOCKED,12,0.99,0.01,0.02,-0.12
0.10,0.40,0.029526,1007.988342,0.058165,-0.038431,0.043313,49.2466278076,-123.2301940918,87.400002,LOCKED,12,0.99,0.01,0.02,-0.12
0.10,0.40,0.056076,1007.985168,0.059717,-0.036161,0.043319,49.2466278076,-123.2301940918,87.400002,LOCKED,12,0.99,0.01,0.02,-0.12
0.11,0.41,0.056076,1007.985168,0.058678,-0.036824,0.046271,49.2466278076,-123.2301940918,87.400002,LOCKED,12,0.99,0.01,0.02,-0.12
0.12,0.42,0.104050,1007.979431,0.065185,-0.035361,0.049008,49.2466278076,-123.2301940918,87.400002,LOCKED,12,0.99,0.01,0.02,-0.12
0.12,0.42,0.104050,1007.979431,0.053109,-0.037825,0.046447,49.2466278076,-123.2301940918,87.400002,LOCKED,12,0.99,0.01,0.02,-0.12
0.12,0.42,-0.037842,1007.996399,0.061980,-0.040759,0.043108,49.2466278076,-123.2301940918,87.400002,LOCKED,12,0.99,0.01,0.02,-0.12
0.12,0.42,-0.037842,1007.996399,0.054873,-0.039855,0.041194,49.2466278076,-123.2301940918,87.400002,LOCKED,12,0.99,0.01,0.02,-0.12
0.12,0.42,-0.063873,1007.999512,0.057550,-0.050077,0.034456,49.2466278076,-123.2301940918,87.400002,LOCKED,12,0.99,0.01,0.02,-0.12
0.12,0.41,-0.063873,1007.999512,0.054666,-0.049493,0.033845,49.2466278076,-123.2301940918,87.400002,LOCKED,12,0.99,0.01,0.02,-0.12
0.12,0.41,-0.076645,1008.001099,0.056710,-0.042060,0.036910,49.2466278076,-123.2301940918,87.400002,LOCKED,12,0.99,0.01,0.02,-0.12
0.12,0.40,-0.076645,1008.001099,0.058429,-0.034507,0.031191,49.2466278076,-123.2301940918,87.400002,LOCKED,12,0.99,0.01,0.02,-0.12
0.12,0.40,-0.076645,1008.001099,0.064221,-0.038566,0.037218,49.2466278076,-123.2301940918,87.400002,LOCKED,12,0.99,0.01,0.02,-0.12
0.12,0.39,-0.076645,1008.001099,0.056406,-0.038493,0.043128,49.2466278076,-123.2301940918,87.400002,LOCKED,12,0.99,0.01,0.02,-0.12
0.11,0.39,-0.068985,1008.000183,0.055322,-0.043603,0.053531,49.2466278076,-123.2301940918,87.400002,LOCKED,12,0.99,0.01,0.02,-0.12
0.11,0.39,-0.068985,1008.000183,0.061910,-0.036891,0.043949,49.2466278076,-123.2301940918,87.400002,LOCKED,12,0.99,0.01,0.02,-0.12
0.11,0.39,-0.028656,1007.995300,0.063341,-0.040276,0.049664,49.2466278076,-123.2301940918,87.400002,LOCKED,12,0.99,0.01,0.02,-0.12
0.11,0.39,-0.028656,1007.995300,0.057141,-0.040641,0.046458,49.2466278076,-123.2301940918,87.400002,LOCKED,12,0.99,0.01,0.02,-0.12
0.12,0.39,-0.028656,1007.995300,0.055805,-0.038745,0.037028,49.2466278076,-123.2301940918,87.400002,LOCKED,12,0.99,0.01,0.02,-0.12
0.12,0.39,-0.028656,1007.995300,0.053611,-0.039591,0.043683,49.2466278076,-123.2301940918,87.400002,LOCKED,12,0.99,0.01,0.02,-0.12
0.11,0.39,-0.068985,1008.000183,0.055447,-0.039677,0.039458,49.2466278076,-123.2301864624,87.400002,LOCKED,12,0.99,0.01,0.02,-0.13
0.11,0.38,-0.068985,1008.000183,0.059978,-0.046946,0.031264,49.2466278076,-123.2301864624,87.400002,LOCKED,12,0.99,0.01,0.02,-0.13
0.11,0.38,-0.095016,1008.003296,0.062016,-0.045837,0.035863,49.2466278076,-123.2301864624,87.400002,LOCKED,12,0.99,0.01,0.02,-0.13
0.11,0.37,-0.095016,1008.003296,0.056612,-0.048015,0.036245,49.2466278076,-123.2301864624,87.400002,LOCKED,12,0.99,0.01,0.02,-0.13
0.10,0.37,-0.121552,1008.006470,0.056396,-0.044804,0.046366,49.2466278076,-123.2301864624,87.400002,LOCKED,12,0.99,0.01,0.02,-0.13
0.10,0.36,-0.121552,1008.006470,0.059880,-0.042873,0.040427,49.2466278076,-123.2301864624,87.400002,LOCKED,12,0.99,0.01,0.02,-0.13
0.10,0.35,-0.121552,1008.006470,0.062744,-0.043100,0.037137,49.2466278076,-123.2301864624,87.400002,LOCKED,12,0.99,0.01,0.02,-0.13
0.09,0.35,-0.121552,1008.006470,0.061057,-0.037245,0.043965,49.2466278076,-123.2301864624,87.400002,LOCKED,12,0.99,0.01,0.02,-0.13
0.09,0.35,-0.121552,1008.006470,0.055012,-0.037555,0.044911,49.2466278076,-123.2301864624,87.400002,LOCKED,12,0.99,0.01,0.02,-0.13
0.09,0.34,-0.121552,1008.006470,0.060994,-0.033216,0.046771,49.2466278076,-123.2301864624,87.400002,LOCKED,12,0.99,0.01,0.02,-0.13
0.08,0.34,-0.135330,1008.008118,0.056590,-0.042334,0.040804,49.2466278076,-123.2301864624,87.400002,LOCKED,12,0.99,0.01,0.02,-0.13
0.08,0.33,-0.135330,1008.008118,0.052562,-0.045973,0.039871,49.2466278076,-123.2301864624,87.400002,LOCKED,12,0.99,0.01,0.02,-0.13
0.08,0.33,-0.135330,1008.008118,0.060634,-0.043091,0.039656,49.2466278076,-123.2301864624,87.400002,LOCKED,12,0.99,0.01,0.02,-0.13
0.07,0.32,-0.135330,1008.008118,0.058542,-0.038596,0.033752,49.2466278076,-123.2301864624,87.400002,LOCKED,12,0.99,0.01,0.02,-0.13
0.07,0.32,-0.051117,1007.997986,0.059205,-0.039992,0.032464,49.2466278076,-123.2301864624,87.400002,LOCKED,12,0.99,0.01,0.02,-0.13
0.07,0.32,-0.051117,1007.997986,0.061873,-0.043795,0.038125,49.2466278076,-123.2301864624,87.400002,LOCKED,12,0.99,0.01,0.02,-0.13
0.07,0.32,-0.023560,1007.994690,0.056761,-0.042944,0.036626,49.2466278076,-123.2301864624,87.400002,LOCKED,12,0.99,0.01,0.02,-0.13
0.08,0.32,-0.023560,1007.994690,0.054056,-0.042523,0.032095,49.2466278076,-123.2301864624,87.400002,LOCKED,12,0.99,0.01,0.02,-0.13
0.08,0.32,-0.023560,1007.994690,0.056425,-0.041099,0.039622,49.2466278076,-123.2301864624,87.400002,LOCKED,12,0.99,0.01,0.02,-0.13
0.08,0.32,-0.023560,1007.994690,0.058708,-0.040938,0.044674,49.2466278076,-123.2301864624,87.400002,LOCKED,12,0.99,0.01,0.02,-0.13
0.08,0.33,-0.023560,1007.994690,0.056468,-0.035020,0.047860,49.2466278076,-123.2301864624,87.400002,LOCKED,12,0.99,0.01,0.02,-0.13
0.08,0.33,-0.023560,1007.994690,0.060366,-0.028987,0.043494,49.2466278076,-123.2301864624,87.400002,LOCKED,12,0.99,0.01,0.02,-0.13
0.08,0.33,-0.010284,1007.993103,0.063296,-0.038054,0.044098,49.2466278076,-123.2301864624,87.400002,LOCKED,12,0.99,0.01,0.02,-0.13
0.08,0.33,-0.010284,1007.993103,0.060109,-0.043394,0.040639,49.2466278076,-123.2301864624,87.400002,LOCKED,12,0.99,0.01,0.02,-0.13
0.09,0.33,-0.015900,1007.993103,0.060508,-0.041780,0.033584,49.2466278076,-123.2301864624,87.000000,LOCKED,12,0.99,0.01,0.02,-0.13
0.09,0.33,-0.015900,1007.993774,0.055246,-0.051697,0.038379,49.2466278076,-123.2301864624,87.000000,LOCKED,12,0.99,0.01,0.02,-0.13
0.09,0.33,-0.028656,1007.993774,0.059186,-0.048551,0.034171,49.2466278076,-123.2301864624,87.000000,LOCKED,12,0.99,0.01,0.02,-0.13
0.09,0.33,-0.028656,1007.995300,0.058383,-0.039621,0.035436,49.2466278076,-123.2301864624,87.000000,LOCKED,12,0.99,0.01,0.02,-0.13
0.09,0.33,-0.028656,1007.995300,0.051201,-0.042909,0.040737,49.2466278076,-123.2301864624,87.000000,LOCKED,12,0.99,0.01,0.02,-0.13
0.09,0.33,-0.113388,1008.005493,0.057131,-0.045620,0.038729,49.2466278076,-123.2301864624,87.000000,LOCKED,12,0.99,0.01,0.02,-0.13
0.08,0.33,-0.113388,1008.005493,0.057492,-0.035805,0.038025,49.2466278076,-123.2301864624,87.000000,LOCKED,12,0.99,0.01,0.02,-0.13
0.08,0.32,-0.153717,1008.010315,0.055732,-0.032209,0.049682,49.2466278076,-123.2301864624,87.000000,LOCKED,12,0.99,0.01,0.02,-0.13
0.07,0.32,-0.153717,1008.010315,0.059002,-0.042227,0.045842,49.2466278076,-123.2301864624,87.000000,LOCKED,12,0.99,0.01,0.02,-0.13
0.07,0.31,-0.153717,1008.010315,0.060813,-0.038380,0.041980,49.2466278076,-123.2301864624,87.000000,LOCKED,12,0.99,0.01,0.02,-0.13
0.07,0.31,-0.153717,1008.010315,0.051094,-0.045612,0.042855,49.2466278076,-123.2301864624,87.000000,LOCKED,12,0.99,0.01,0.02,-0.13
0.06,0.30,-0.179749,1008.013428,0.059824,-0.044049,0.041603,49.2466278076,-123.2301864624,87.000000,LOCKED,12,0.99,0.01,0.02,-0.13
0.05,0.29,-0.179749,1008.013428,0.052237,-0.044962,0.042834,49.2466278076,-123.2301864624,87.000000,LOCKED,12,0.99,0.01,0.02,-0.13
0.05,0.29,-0.166977,1008.011902,0.051963,-0.038100,0.043534,49.2466278076,-123.2301864624,87.000000,LOCKED,12,0.99,0.01,0.02,-0.13
0.05,0.28,-0.166977,1008.011902,0.059933,-0.045347,0.032515,49.2466278076,-123.2301864624,87.000000,LOCKED,12,0.99,0.01,0.02,-0.13
0.04,0.28,-0.179749,1008.013428,0.057304,-0.049031,0.034949,49.2466278076,-123.2301864624,87.000000,LOCKED,12,0.99,0.01,0.02,-0.13
0.04,0.27,-0.179749,1008.013428,0.055291,-0.048507,0.036015,49.2466278076,-123.2301864624,87.000000,LOCKED,12,0.99,0.01,0.02,-0.13
0.03,0.26,-0.237930,1008.020386,0.060320,-0.053208,0.035935,49.2466278076,-123.2301864624,87.000000,LOCKED,12,0.99,0.01,0.02,-0.13
0.02,0.25,-0.237930,1008.020386,0.064963,-0.044267,0.033090,49.2466278076,-123.2301864624,87.000000,LOCKED,12,0.99,0.01,0.02,-0.13
0.01,0.25,-0.251205,1008.022034,0.055556,-0.042991,0.043254,49.2466278076,-123.2301864624,87.000000,LOCKED,12,0.99,0.01,0.02,-0.13
0.01,0.24,-0.251205,1008.022034,0.054885,-0.044829,0.045669,49.2466278076,-123.2301864624,87.000000,LOCKED,12,0.99,0.01,0.02,-0.13
0.00,0.23,-0.237930,1008.020386,0.055530,-0.039964,0.039922,49.2466278076,-123.2301864624,87.000000,LOCKED,12,0.99,0.01,0.02,-0.14
-0.01,0.23,-0.237930,1008.020386,0.062116,-0.038352,0.040948,49.2466278076,-123.2301864624,87.000000,LOCKED,12,0.99,0.01,0.02,-0.14
-0.01,0.23,-0.113388,1008.005493,0.059169,-0.050724,0.042401,49.2466278076,-123.2301864624,87.000000,LOCKED,12,0.99,0.01,0.02,-0.14
-0.01,0.23,-0.113388,1008.005493,0.055173,-0.047933,0.034808,49.2466278076,-123.2301864624,87.000000,LOCKED,12,0.99,0.01,0.02,-0.14
-0.01,0.23,-0.113388,1008.005493,0.058494,-0.047048,0.036669,49.2466278076,-123.2301864624,87.000000,LOCKED,12,0.99,0.01,0.02,-0.14
-0.01,0.23,-0.113388,1008.005493,0.054708,-0.047746,0.036789,49.2466278076,-123.2301864624,87.000000,LOCKED,12,0.99,0.01,0.02,-0.14
-0.01,0.22,-0.211395,1008.017212,0.056941,-0.042693,0.031234,49.2466278076,-123.2301864624,87.000000,LOCKED,12,0.99,0.01,0.02,-0.14
-0.02,0.22,-0.211395,1008.017212,0.056177,-0.044963,0.034616,49.2466278076,-123.2301864624,87.000000,LOCKED,12,0.99,0.01,0.02,-0.14
-0.03,0.21,-0.308884,1008.028931,0.055916,-0.036629,0.037561,49.2466278076,-123.2301864624,87.000000,LOCKED,12,0.99,0.01,0.02,-0.14
-0.04,0.20,-0.308884,1008.028931,0.057891,-0.046276,0.037201,49.2466278076,-123.2301864624,87.000000,LOCKED,12,0.99,0.01,0.02,-0.14
-0.05,0.19,-0.322159,1008.030518,0.053787,-0.040849,0.046558,49.2466278076,-123.2301864624,87.000000,LOCKED,12,0.99,0.01,0.02,-0.14
-0.05,0.19,-0.322159,1008.030518,0.058072,-0.044658,0.041395,49.2466278076,-123.2301864624,87.000000,LOCKED,12,0.99,0.01,0.02,-0.14
-0.06,0.18,-0.308884,1008.028931,0.061732,-0.038196,0.044635,49.2466278076,-123.2301864624,87.000000,LOCKED,12,0.99,0.01,0.02,-0.14
-0.07,0.17,-0.308884,1008.028931,0.063297,-0.041595,0.039342,49.2466278076,-123.2301864624,87.000000,LOCKED,12,0.99,0.01,0.02,-0.14
-0.08,0.16,-0.356857,1008.034668,0.062448,-0.038892,0.040675,49.2466278076,-123.2301864624,87.000000,LOCKED,12,0.99,0.01,0.02,-0.14
-0.09,0.16,-0.356857,1008.034668,0.061667,-0.034428,0.041329,49.2466278076,-123.2301864624,87.000000,LOCKED,12,0.99,0.01,0.02,-0.14
-0.10,0.15,-0.330322,1008.031494,0.055707,-0.047471,0.032600,49.2466278076,-123.2301864624,87.000000,LOCKED,12,0.99,0.01,0.02,-0.14
-0.10,0.14,-0.330322,1008.031494,0.051094,-0.050088,0.042958,49.2466278076,-123.2301864624,87.000000,LOCKED,12,0.99,0.01,0.02,-0.14
-0.11,0.14,-0.255798,1008.022583,0.057091,-0.048943,0.034219,49.2466278076,-123.2301864624,87.000000,LOCKED,12,0.99,0.01,0.02,-0.14
-0.11,0.14,-0.255798,1008.022583,0.057428,-0.052353,0.031906,49.2466278076,-123.2301864624,87.000000,LOCKED,12,0.99,0.01,0.02,-0.14
-0.12,0.14,-0.242523,1008.020935,0.052339,-0.046224,0.035941,49.2466278076,-123.2301864624,87.000000,LOCKED,12,0.99,0.01,0.02,-0.14
-0.12,0.14,-0.242523,1008.020935,0.055721,-0.044244,0.037099,49.2466278076,-123.2301864624,87.000000,LOCKED,12,0.99,0.01,0.02,-0.14
-0.12,0.14,-0.216492,1008.017822,0.058290,-0.044412,0.039443,49.2466278076,-123.2301864624,87.000000,LOCKED,12,0.99,0.01,0.02,-0.14
-0.12,0.14,-0.216492,1008.017822,0.052102,-0.043825,0.043841,49.2466278076,-123.2301864624,87.000000,LOCKED,12,0.99,0.01,0.02,-0.14
-0.12,0.15,-0.162903,1008.011414,0.055789,-0.045229,0.042194,49.2466278076,-123.2301864624,87.000000,LOCKED,12,0.99,0.01,0.02,-0.14
-0.12,0.15,-0.162903,1008.011414,0.057098,-0.045115,0.042394,49.2466278076,-123.2301864624,87.000000,LOCKED,12,0.99,0.01,0.02,-0.14
-0.12,0.16,-0.135849,1008.008179,0.053362,-0.044792,0.043276,49.2466278076,-123.2301864624,87.000000,LOCKED,12,0.99,0.01,0.02,-0.14
-0.12,0.16,-0.135849,1008.008179,0.043204,-0.048460,0.021295,49.2466278076,-123.2301864624,87.000000,LOCKED,12,0.99,0.01,0.02,-0.14
-0.11,0.17,-0.038361,1007.996460,0.063278,-0.046673,0.026966,49.2466278076,-123.2301864624,87.000000,LOCKED,12,0.99,0.01,0.02,-0.14
-0.10,0.18,-0.038361,1007.996460,0.067781,-0.041114,0.047259,49.2466278076,-123.2301864624,87.000000,LOCKED,12,0.99,0.01,0.02,-0.14
-0.10,0.19,-0.025085,1007.994873,0.059152,-0.045488,0.040595,49.2466278076,-123.2301864624,87.000000,LOCKED,12,0.99,0.01,0.02,-0.14
-0.09,0.20,-0.025085,1007.994873,0.057204,-0.048701,0.030059,49.2466278076,-123.2301864624,87.000000,LOCKED,12,0.99,0.01,0.02,-0.14
-0.09,0.21,-0.077652,1008.001221,0.054923,-0.053313,0.026824,49.2466278076,-123.2301864624,87.000000,LOCKED,12,0.99,0.01,0.02,-0.14
-0.08,0.22,-0.077652,1008.001221,0.059937,-0.042801,0.036984,49.2466278076,-123.2301864624,87.000000,LOCKED,12,0.99,0.01,0.02,-0.14
-0.08,0.22,-0.135849,1008.008179,0.060082,-0.036210,0.047937,49.2466278076,-123.2301864624,87.000000,LOCKED,12,0.99,0.01,0.02,-0.14
-0.08,0.23,-0.135849,1008.008179,0.053331,-0.045591,0.043491,49.2466278076,-123.2301864624,87.000000,LOCKED,12,0.99,0.01,0.02,-0.14
-0.08,0.23,-0.122574,1008.006592,0.055420,-0.047132,0.031144,49.2466278076,-123.2301864624,87.000000,LOCKED,12,0.99,0.01,0.02,-0.14
-0.08,0.23,-0.122574,1008.006592,0.048175,-0.039903,0.034812,49.2466278076,-123.2301864624,87.000000,LOCKED,12,0.99,0.01,0.02,-0.14
-0.08,0.23,-0.175659,1008.012939,0.059803,-0.031970,0.041482,49.2466278076,-123.2301864624,87.000000,LOCKED,12,0.99,0.01,0.02,-0.14
-0.08,0.24,-0.175659,1008.012939,0.055800,-0.036964,0.052713,49.2466278076,-123.2301864624,87.000000,LOCKED,12,0.99,0.01,0.02,-0.14
-0.08,0.24,-0.149124,1008.009766,0.059148,-0.056935,0.033878,49.2466278076,-123.2301864624,87.000000,LOCKED,12,0.99,0.01,0.02,-0.14
-0.07,0.24,-0.149124,1008.009766,0.051254,-0.044749,0.027707,49.2466278076,-123.2301864624,87.000000,LOCKED,12,0.99,0.01,0.02,-0.15
-0.07,0.24,-0.122574,1008.006592,0.060114,-0.065014,0.013314,49.2466278076,-123.2301864624,87.000000,LOCKED,12,0.99,0.01,0.02,-0.15
-0.07,0.24,-0.122574,1008.006592,0.059735,-0.051860,0.030109,49.2466278076,-123.2301864624,87.000000,LOCKED,12,0.99,0.01,0.02,-0.15
-0.07,0.25,-0.083267,1008.001892,0.063000,-0.061521,0.027737,49.2466278076,-123.2301864624,87.000000,LOCKED,12,0.99,0.01,0.02,-0.15
-0.06,0.25,-0.083267,1008.001892,0.045891,-0.041922,0.031166,49.2466278076,-123.2301864624,87.000000,LOCKED,12,0.99,0.01,0.02,-0.15
-0.06,0.26,-0.042953,1007.997009,0.073785,-0.054877,0.028277,49.2466278076,-123.2301864624,87.000000,LOCKED,12,0.99,0.01,0.02,-0.15
-0.05,0.26,-0.042953,1007.997009,0.036601,-0.041851,0.042017,49.2466278076,-123.2301864624,87.000000,LOCKED,12,0.99,0.01,0.02,-0.15
-0.05,0.26,-0.116959,1008.005920,0.062192,-0.049788,0.025923,49.2466278076,-123.2301864624,87.000000,LOCKED,12,0.99,0.01,0.02,-0.15
-0.05,0.27,-0.116959,1008.005920,0.065637,-0.030784,0.048888,49.2466278076,-123.2301864624,87.000000,LOCKED,12,0.99,0.01,0.02,-0.15
-0.04,0.28,-0.056732,1007.998657,0.075045,-0.043070,0.047915,49.2466278076,-123.2301864624,87.000000,LOCKED,12,0.99,0.01,0.02,-0.15
-0.04,0.28,-0.056732,1007.998657,0.042401,-0.042539,0.032497,49.2466278076,-123.2301864624,87.000000,LOCKED,12,0.99,0.01,0.02,-0.15
-0.04,0.28,-0.069489,1008.000244,0.038341,-0.102562,0.015930,49.2466278076,-123.2301864624,87.000000,LOCKED,12,0.99,0.01,0.02,-0.15
-0.03,0.29,-0.069489,1008.000244,0.049112,-0.061817,0.026792,49.2466278076,-123.2301864624,87.000000,LOCKED,12,0.99,0.01,0.02,-0.15
-0.03,0.29,-0.042953,1007.997009,0.019424,-0.057375,0.014319,49.2466278076,-123.2301864624,87.000000,LOCKED,12,0.99,0.01,0.02,-0.15
-0.02,0.30,-0.042953,1007.997009,0.059242,-0.039133,0.054721,49.2466278076,-123.2301864624,87.000000,LOCKED,12,0.99,0.01,0.02,-0.15
-0.02,0.31,-0.030182,1007.995483,0.053304,-0.031681,0.066168,49.2466278076,-123.2301864624,87.000000,LOCKED,12,0.99,0.01,0.02,-0.15
-0.01,0.32,-0.030182,1007.995483,0.053182,-0.033814,0.050463,49.2466278076,-123.2301864624,87.000000,LOCKED,12,0.99,0.01,0.02,-0.15
-0.01,0.33,-0.016922,1007.993896,0.055693,-0.025572,0.065299,49.2466278076,-123.2301864624,87.000000,LOCKED,12,0.99,0.01,0.02,-0.15
-0.00,0.33,-0.016922,1007.993896,0.050464,-0.058319,0.024621,49.2466278076,-123.2301864624,87.000000,LOCKED,12,0.99,0.01,0.02,-0.15
0.01,0.34,0.081604,1007.982117,0.048455,-0.066579,0.003425,49.2466278076,-123.2301864624,87.000000,LOCKED,12,0.99,0.01,0.02,-0.15
0.02,0.34,0.081604,1007.982117,0.058128,-0.066936,0.016704,49.2466278076,-123.2301864624,87.000000,LOCKED,12,0.99,0.01,0.02,-0.15
0.02,0.35,0.028519,1007.988464,0.039579,-0.029026,0.033760,49.2466278076,-123.2301864624,87.000000,LOCKED,12,0.99,0.01,0.02,-0.15
0.03,0.36,0.028519,1007.988464,0.080040,-0.027537,0.070915,49.2466278076,-123.2301864624,87.000000,LOCKED,12,0.99,0.01,0.02,-0.15
0.04,0.38,0.055054,1007.985291,0.061135,-0.010361,0.095901,49.2466278076,-123.2301864624,87.000000,LOCKED,12,0.99,0.01,0.02,-0.15
0.04,0.40,0.055054,1007.985291,0.125342,-0.022023,0.100411,49.2466278076,-123.2301864624,87.000000,LOCKED,12,0.99,0.01,0.02,-0.15
0.05,0.40,0.023407,1007.989075,0.069214,-0.086193,0.012465,49.2466278076,-123.2301864624,87.000000,LOCKED,12,0.99,0.01,0.02,-0.15
0.06,0.40,0.023407,1007.989075,0.044747,-0.051422,0.014739,49.2466278076,-123.2301864624,87.000000,LOCKED,12,0.99,0.01,0.02,-0.15
0.06,0.40,0.050461,1007.985840,0.055803,-0.068242,0.011579,49.2466278076,-123.2301864624,87.000000,LOCKED,12,0.99,0.01,0.02,-0.15
0.07,0.40,0.050461,1007.985840,0.061664,-0.055567,0.027409,49.2466278076,-123.2301864624,87.000000,LOCKED,12,0.99,0.01,0.02,-0.15
0.08,0.41,0.147949,1007.974121,0.050679,-0.039579,0.035916,49.2466278076,-123.2301864624,87.000000,LOCKED,12,0.99,0.01,0.02,-0.15
0.09,0.42,0.147949,1007.974121,0.062132,-0.047087,0.033027,49.2466278076,-123.2301864624,87.000000,LOCKED,12,0.99,0.01,0.02,-0.15
0.10,0.44,0.179092,1007.970398,0.056008,-0.029062,0.054887,49.2466278076,-123.2301864624,87.000000,LOCKED,12,0.99,0.01,0.02,-0.15
0.11,0.45,0.179092,1007.970398,0.059517,-0.038128,0.051026,49.2466278076,-123.2301864624,87.000000,LOCKED,12,0.99,0.01,0.02,-0.15
0.12,0.46,0.095383,1007.980469,0.063598,-0.055691,0.056636,49.2466278076,-123.2301864624,87.000000,LOCKED,12,0.99,0.01,0.02,-0.15
0.13,0.47,0.095383,1007.980469,0.057682,-0.040952,0.050759,49.2466278076,-123.2301864624,87.000000,LOCKED,12,0.99,0.01,0.02,-0.15
0.13,0.47,0.010651,1007.990601,0.055835,-0.030883,0.054346,49.2466278076,-123.2301864624,87.000000,LOCKED,12,0.99,0.01,0.02,-0.15
0.13,0.47,0.010651,1007.990601,0.059178,-0.039312,0.051488,49.2466278076,-123.2301864624,87.000000,LOCKED,12,0.99,0.01,0.02,-0.15
0.14,0.47,0.010651,1007.990601,0.055269,-0.040961,0.035204,49.2466278076,-123.2301864624,87.000000,LOCKED,12,0.99,0.01,0.02,-0.15
0.14,0.47,0.010651,1007.990601,0.056264,-0.032264,0.054771,49.2466278076,-123.2301864624,87.000000,LOCKED,12,0.99,0.01,0.02,-0.15
0.14,0.47,-0.051117,1007.997986,0.057339,-0.052732,0.041814,49.2466278076,-123.2301864624,87.000000,LOCKED,12,0.99,0.01,0.02,-0.15
0.14,0.47,-0.051117,1007.997986,0.057399,-0.060685,0.035683,49.2466278076,-123.2301864624,87.000000,LOCKED,12,0.99,0.01,0.02,-0.16
0.14,0.46,-0.037842,1007.997986,0.055013,-0.055558,0.038388,49.2466278076,-123.2301864624,87.000000,LOCKED,12,0.99,0.01,0.02,-0.16
0.14,0.46,-0.037842,1007.996399,0.054920,-0.051432,0.029485,49.2466278076,-123.2301864624,87.000000,LOCKED,12,0.99,0.01,0.02,-0.16
0.14,0.45,-0.077148,1008.001160,0.053908,-0.041005,0.033050,49.2466278076,-123.2301864624,87.000000,LOCKED,12,0.99,0.01,0.02,-0.16
0.14,0.45,-0.077148,1008.001160,0.059491,-0.044906,0.031236,49.2466278076,-123.2301864624,87.000000,LOCKED,12,0.99,0.01,0.02,-0.16
0.13,0.44,-0.077148,1008.001160,0.062409,-0.044419,0.042381,49.2466278076,-123.2301864624,87.000000,LOCKED,12,0.99,0.01,0.02,-0.16
0.13,0.44,-0.095016,1008.003296,0.055965,-0.031726,0.047955,49.2466278076,-123.2301788330,87.000000,LOCKED,12,0.99,0.01,0.02,-0.16
0.13,0.43,-0.095016,1008.003296,0.055513,-0.044564,0.053392,49.2466278076,-123.2301788330,87.000000,LOCKED,12,0.99,0.01,0.02,-0.16
0.13,0.43,-0.122574,1008.006592,0.056030,-0.036764,0.056575,49.2466278076,-123.2301788330,87.000000,LOCKED,12,0.99,0.01,0.02,-0.16
0.12,0.43,-0.122574,1008.006592,0.046493,-0.016565,0.061811,49.2466278076,-123.2301788330,87.000000,LOCKED,12,0.99,0.01,0.02,-0.16
0.12,0.42,-0.148605,1008.009705,0.027971,-0.028271,0.039389,49.2466278076,-123.2301788330,87.000000,LOCKED,12,0.99,0.01,0.02,-0.16
0.11,0.41,-0.148605,1008.009705,0.080369,-0.066133,0.040431,49.2466278076,-123.2301788330,87.000000,LOCKED,12,0.99,0.01,0.02,-0.16
0.11,0.39,-0.233337,1008.019836,0.047729,-0.063632,-0.011206,49.2466278076,-123.2301788330,87.000000,LOCKED,12,0.99,0.01,0.02,-0.16
0.10,0.37,-0.233337,1008.019836,0.043231,-0.048507,0.013422,49.2466278076,-123.2301788330,87.000000,LOCKED,12,0.99,0.01,0.02,-0.16
0.09,0.36,-0.179749,1008.013428,0.050694,-0.044852,0.026433,49.2466278076,-123.2301788330,87.000000,LOCKED,12,0.99,0.01,0.02,-0.16
0.09,0.35,-0.179749,1008.013428,0.058175,-0.049666,0.021560,49.2466278076,-123.2301788330,87.000000,LOCKED,12,0.99,0.01,0.02,-0.16
0.08,0.34,-0.135330,1008.008118,0.061276,-0.084299,0.022746,49.2466278076,-123.2301788330,87.000000,LOCKED,12,0.99,0.01,0.02,-0.16
0.08,0.34,-0.135330,1008.008118,0.067702,-0.063698,0.033664,49.2466278076,-123.2301788330,87.000000,LOCKED,12,0.99,0.01,0.02,-0.16
0.07,0.33,-0.193527,1008.015076,0.058886,-0.057571,0.044252,49.2466278076,-123.2301788330,87.000000,LOCKED,12,0.99,0.01,0.02,-0.16
0.07,0.32,-0.193527,1008.015076,0.067222,-0.046130,0.046970,49.2466278076,-123.2301788330,87.000000,LOCKED,12,0.99,0.01,0.02,-0.16
0.06,0.32,-0.193527,1008.015076,0.055879,-0.028357,0.049256,49.2466278076,-123.2301788330,87.000000,LOCKED,12,0.99,0.01,0.02,-0.16
0.06,0.31,-0.193527,1008.015076,0.063342,-0.032479,0.051745,49.2466278076,-123.2301788330,87.000000,LOCKED,12,0.99,0.01,0.02,-0.16
0.06,0.31,-0.081741,1008.001709,0.053676,-0.023222,0.049279,49.2466278076,-123.2301788330,87.000000,LOCKED,12,0.99,0.01,0.02,-0.16
0.05,0.31,-0.081741,1008.001709,0.051749,-0.037646,0.044712,49.2466278076,-123.2301788330,87.000000,LOCKED,12,0.99,0.01,0.02,-0.16
0.05,0.31,-0.081741,1008.001709,0.054220,-0.020472,0.051556,49.2466278076,-123.2301788330,87.000000,LOCKED,12,0.99,0.01,0.02,-0.16
0.05,0.32,-0.081741,1008.001709,0.053837,-0.026042,0.062634,49.2466278076,-123.2301788330,87.000000,LOCKED,12,0.99,0.01,0.02,-0.16
0.05,0.32,-0.081741,1008.001709,0.052856,-0.024843,0.057340,49.2466278076,-123.2301788330,87.000000,LOCKED,12,0.99,0.01,0.02,-0.16
0.05,0.32,-0.081741,1008.001709,0.070401,-0.073743,0.042695,49.2466278076,-123.2301788330,87.000000,LOCKED,12,0.99,0.01,0.02,-0.16
0.05,0.32,-0.028656,1007.995300,0.059285,-0.065351,0.018027,49.2466278076,-123.2301788330,87.000000,LOCKED,12,0.99,0.01,0.02,-0.16
0.06,0.32,-0.028656,1007.995300,0.047828,-0.042228,0.030289,49.2466278076,-123.2301788330,87.000000,LOCKED,12,0.99,0.01,0.02,-0.16
0.06,0.32,-0.041931,1007.996887,0.060857,-0.051568,0.026005,49.2466278076,-123.2301788330,86.800003,LOCKED,12,0.99,0.01,0.02,-0.16
0.06,0.32,-0.041931,1007.996887,0.059874,-0.045253,0.039465,49.2466278076,-123.2301788330,86.800003,LOCKED,12,0.99,0.01,0.02,-0.16
0.06,0.32,-0.015900,1007.993774,0.051629,-0.045897,0.039781,49.2466278076,-123.2301788330,86.800003,LOCKED,12,0.99,0.01,0.02,-0.16
0.06,0.33,-0.015900,1007.993774,0.058082,-0.039586,0.050983,49.2466278076,-123.2301788330,86.800003,LOCKED,12,0.99,0.01,0.02,-0.16
0.06,0.33,-0.041931,1007.996887,0.067794,-0.036762,0.056312,49.2466278076,-123.2301788330,86.800003,LOCKED,12,0.99,0.01,0.02,-0.16
0.07,0.33,-0.041931,1007.996887,0.059759,-0.042522,0.053256,49.2466278076,-123.2301788330,86.800003,LOCKED,12,0.99,0.01,0.02,-0.16
0.06,0.33,-0.113388,1008.005493,0.063750,-0.047666,0.041664,49.2466278076,-123.2301788330,86.800003,LOCKED,12,0.99,0.01,0.02,-0.16
0.06,0.33,-0.113388,1008.005493,0.055351,-0.049316,0.037548,49.2466278076,-123.2301788330,86.800003,LOCKED,12,0.99,0.01,0.02,-0.17
0.06,0.32,-0.153717,1008.010315,0.053777,-0.052706,0.025515,49.2466278076,-123.2301788330,86.800003,LOCKED,12,0.99,0.01,0.02,-0.17
0.05,0.31,-0.153717,1008.010315,0.054906,-0.054960,0.031013,49.2466278076,-123.2301788330,86.800003,LOCKED,12,0.99,0.01,0.02,-0.17
0.06,0.31,-0.037842,1007.996399,0.059880,-0.051938,0.018936,49.2466278076,-123.2301788330,86.800003,LOCKED,12,0.99,0.01,0.02,-0.17
0.06,0.31,-0.037842,1007.996399,0.052177,-0.045084,0.036606,49.2466278076,-123.2301788330,86.800003,LOCKED,12,0.99,0.01,0.02,-0.17
0.06,0.32,-0.030182,1007.995483,0.058269,-0.042339,0.041341,49.2466278076,-123.2301788330,86.800003,LOCKED,12,0.99,0.01,0.02,-0.17
0.06,0.32,-0.030182,1007.995483,0.055971,-0.044447,0.036227,49.2466278076,-123.2301788330,86.800003,LOCKED,12,0.99,0.01,0.02,-0.17
0.06,0.31,-0.116959,1008.005920,0.065282,-0.044266,0.034872,49.2466278076,-123.2301788330,86.800003,LOCKED,12,0.99,0.01,0.02,-0.17
0.06,0.31,-0.116959,1008.005920,0.059513,-0.035329,0.051810,49.2466278076,-123.2301788330,86.800003,LOCKED,12,0.99,0.01,0.02,-0.17
0.05,0.31,-0.144012,1008.009155,0.056919,-0.044751,0.041800,49.2466278076,-123.2301788330,86.800003,LOCKED,12,0.99,0.01,0.02,-0.17
0.05,0.31,-0.144012,1008.009155,0.052030,-0.049434,0.043301,49.2466278076,-123.2301788330,86.800003,LOCKED,12,0.99,0.01,0.02,-0.17
0.05,0.31,-0.042953,1007.997009,0.054234,-0.054241,0.029593,49.2466278076,-123.2301788330,86.800003,LOCKED,12,0.99,0.01,0.02,-0.17
0.05,0.31,-0.042953,1007.997009,0.054981,-0.052710,0.037194,49.2466278076,-123.2301788330,86.800003,LOCKED,12,0.99,0.01,0.02,-0.17
0.06,0.31,0.041779,1007.986877,0.060765,-0.048847,0.036848,49.2466278076,-123.2301788330,86.800003,LOCKED,12,0.99,0.01,0.02,-0.17
0.06,0.32,0.041779,1007.986877,0.051884,-0.045355,0.033427,49.2466278076,-123.2301788330,86.800003,LOCKED,12,0.98,0.01,0.02,-0.17
0.06,0.32,-0.030182,1007.995483,0.058268,-0.050982,0.039320,49.2466278076,-123.2301788330,86.800003,LOCKED,12,0.98,0.01,0.02,-0.17
0.06,0.32,-0.030182,1007.995483,0.059370,-0.046537,0.031611,49.2466278076,-123.2301788330,86.800003,LOCKED,12,0.98,0.01,0.02,-0.17
0.06,0.32,-0.069489,1008.000244,0.061490,-0.055486,0.034383,49.2466278076,-123.2301788330,86.800003,LOCKED,12,0.98,0.01,0.02,-0.17
0.06,0.32,-0.069489,1008.000244,0.054624,-0.043821,0.037037,49.2466278076,-123.2301788330,86.800003,LOCKED,12,0.98,0.01,0.02,-0.17
0.06,0.31,-0.170563,1008.012329,0.059479,-0.053181,0.036259,49.2466278076,-123.2301788330,86.800003,LOCKED,12,0.98,0.01,0.02,-0.17
0.05,0.30,-0.170563,1008.012329,0.052620,-0.047209,0.042377,49.2466278076,-123.2301788330,86.800003,LOCKED,12,0.98,0.01,0.02,-0.17
0.05,0.30,-0.116959,1008.005920,0.054241,-0.049302,0.038568,49.2466278076,-123.2301788330,86.800003,LOCKED,12,0.98,0.01,0.02,-0.17
0.05,0.30,-0.116959,1008.005920,0.053311,-0.046597,0.036747,49.2466278076,-123.2301788330,86.800003,LOCKED,12,0.98,0.01,0.02,-0.17
0.05,0.30,-0.063873,1007.999512,0.059778,-0.050193,0.036598,49.2466278076,-123.2301788330,86.800003,LOCKED,12,0.98,0.01,0.02,-0.17
0.05,0.30,-0.063873,1007.999512,0.053324,-0.048510,0.035701,49.2466278076,-123.2301788330,86.800003,LOCKED,12,0.98,0.01,0.02,-0.17
0.05,0.30,-0.037842,1007.996399,0.060351,-0.055037,0.037871,49.2466278076,-123.2301788330,86.800003,LOCKED,12,0.98,0.01,0.02,-0.17
0.05,0.30,-0.037842,1007.996399,0.054120,-0.047470,0.036441,49.2466278076,-123.2301788330,86.800003,LOCKED,12,0.98,0.01,0.02,-0.18
0.05,0.30,-0.068985,1008.000183,0.061729,-0.046070,0.031288,49.2466278076,-123.2301788330,86.800003,LOCKED,12,0.98,0.01,0.02,-0.18
0.05,0.30,-0.068985,1008.000183,0.063159,-0.049718,0.040636,49.2466278076,-123.2301788330,86.800003,LOCKED,12,0.98,0.01,0.02,-0.18
0.06,0.31,0.015747,1007.989990,0.053070,-0.043797,0.049083,49.2466278076,-123.2301788330,86.800003,LOCKED,12,0.98,0.01,0.02,-0.18
0.06,0.31,0.015747,1007.989990,0.066341,-0.046780,0.042814,49.2466278076,-123.2301788330,86.800003,LOCKED,12,0.98,0.01,0.02,-0.18
0.06,0.32,0.002472,1007.991577,0.057287,-0.041658,0.042633,49.2466278076,-123.2301788330,86.800003,LOCKED,12,0.98,0.01,0.02,-0.18
0.07,0.32,0.002472,1007.991577,0.057432,-0.052036,0.050322,49.2466278076,-123.2301788330,86.800003,LOCKED,12,0.98,0.01,0.02,-0.18
0.07,0.32,-0.023560,1007.994690,0.054426,-0.045749,0.037712,49.2466278076,-123.2301788330,86.800003,LOCKED,12,0.98,0.01,0.02,-0.18
0.07,0.32,-0.023560,1007.994690,0.061588,-0.040879,0.035641,49.2466278076,-123.2301788330,86.800003,LOCKED,12,0.98,0.01,0.02,-0.18
0.07,0.33,0.036682,1007.987488,0.062608,-0.037728,0.038649,49.2466278076,-123.2301788330,86.800003,LOCKED,12,0.98,0.01,0.02,-0.18
0.08,0.33,0.036682,1007.987488,0.052972,-0.052998,0.045090,49.2466278076,-123.2301788330,86.800003,LOCKED,12,0.98,0.01,0.02,-0.18
0.08,0.33,-0.051117,1007.997986,0.053359,-0.059041,0.033368,49.2466278076,-123.2301788330,86.800003,LOCKED,12,0.98,0.01,0.02,-0.18
0.08,0.33,-0.051117,1007.997986,0.048474,-0.052695,0.039417,49.2466278076,-123.2301788330,86.800003,LOCKED,12,0.98,0.01,0.02,-0.18
0.08,0.33,-0.063873,1007.999512,0.052638,-0.053528,0.045085,49.2466278076,-123.2301788330,86.800003,LOCKED,12,0.98,0.01,0.02,-0.18
0.08,0.33,-0.063873,1007.999512,0.050437,-0.045810,0.037139,49.2466278076,-123.2301788330,86.800003,LOCKED,12,0.98,0.01,0.02,-0.18
0.08,0.33,-0.090424,1008.002747,0.061776,-0.036053,0.042660,49.2466278076,-123.2301788330,86.800003,LOCKED,12,0.98,0.01,0.02,-0.18
0.07,0.33,-0.090424,1008.002747,0.053322,-0.033993,0.042344,49.2466278076,-123.2301788330,86.800003,LOCKED,12,0.98,0.01,0.02,-0.18
0.07,0.32,-0.135330,1008.008118,0.057645,-0.042734,0.039652,49.2466278076,-123.2301788330,86.800003,LOCKED,12,0.98,0.01,0.02,-0.18
0.07,0.32,-0.135330,1008.008118,0.058348,-0.047200,0.037261,49.2466278076,-123.2301788330,86.800003,LOCKED,12,0.98,0.01,0.02,-0.18
0.07,0.32,-0.063873,1007.999512,0.055155,-0.047195,0.033724,49.2466278076,-123.2301788330,86.800003,LOCKED,12,0.98,0.01,0.02,-0.18
0.07,0.31,-0.063873,1007.999512,0.055325,-0.059538,0.033758,49.2466278076,-123.2301788330,86.800003,LOCKED,12,0.98,0.01,0.02,-0.18
0.07,0.32,0.064240,1007.984192,0.057497,-0.053407,0.034626,49.2466278076,-123.2301788330,86.800003,LOCKED,12,0.98,0.01,0.02,-0.18
0.08,0.33,0.064240,1007.984192,0.053541,-0.046032,0.038964,49.2466278076,-123.2301788330,86.800003,LOCKED,12,0.98,0.01,0.02,-0.18
0.09,0.34,0.161743,1007.972473,0.055813,-0.041514,0.039773,49.2466278076,-123.2301788330,86.800003,LOCKED,12,0.98,0.01,0.02,-0.18
0.10,0.35,0.161743,1007.972473,0.053639,-0.043022,0.028801,49.2466278076,-123.2301788330,86.800003,LOCKED,12,0.98,0.01,0.02,-0.19
0.10,0.36,0.147949,1007.974121,0.054667,-0.043936,0.035573,49.2466278076,-123.2301788330,86.800003,LOCKED,12,0.98,0.01,0.02,-0.19
0.11,0.36,0.147949,1007.974121,0.058569,-0.054574,0.039674,49.2466278076,-123.2301788330,86.800003,LOCKED,12,0.98,0.01,0.02,-0.19
0.12,0.38,0.174500,1007.970947,0.054287,-0.050559,0.041945,49.2466278076,-123.2301788330,86.800003,LOCKED,12,0.98,0.01,0.02,-0.19
0.13,0.39,0.174500,1007.970947,0.056643,-0.049610,0.046288,49.2466278076,-123.2301788330,86.800003,LOCKED,12,0.98,0.01,0.02,-0.19
0.14,0.40,0.214310,1007.966187,0.056778,-0.050878,0.038167,49.2466278076,-123.2301788330,86.800003,LOCKED,12,0.98,0.01,0.02,-0.19
0.15,0.41,0.214310,1007.966187,0.058027,-0.047834,0.046056,49.2466278076,-123.2301788330,86.800003,LOCKED,12,0.98,0.01,0.02,-0.19
0.16,0.42,0.228088,1007.964539,0.059530,-0.045272,0.044378,49.2466278076,-123.2301788330,86.800003,LOCKED,12,0.98,0.01,0.02,-0.19
0.17,0.43,0.228088,1007.964539,0.053584,-0.048195,0.035216,49.2466278076,-123.2301788330,86.800003,LOCKED,12,0.98,0.01,0.02,-0.19
0.18,0.44,0.174500,1007.970947,0.053709,-0.055042,0.030558,49.2466278076,-123.2301788330,86.800003,LOCKED,12,0.98,0.01,0.02,-0.19
0.19,0.44,0.174500,1007.970947,0.059981,-0.047487,0.033769,49.2466278076,-123.2301788330,86.800003,LOCKED,12,0.98,0.01,0.02,-0.19
0.19,0.44,0.134689,1007.975708,0.054568,-0.053229,0.041595,49.2466278076,-123.2301788330,86.800003,LOCKED,12,0.98,0.01,0.02,-0.19
0.20,0.45,0.134689,1007.975708,0.055970,-0.053982,0.044201,49.2466278076,-123.2301788330,86.800003,LOCKED,12,0.98,0.01,0.02,-0.19
0.20,0.45,0.134689,1007.975708,0.057723,-0.049585,0.038916,49.2466278076,-123.2301788330,86.800003,LOCKED,12,0.98,0.01,0.02,-0.19
0.21,0.45,0.134689,1007.975708,0.057416,-0.046646,0.032437,49.2466278076,-123.2301788330,86.800003,LOCKED,12,0.98,0.01,0.02,-0.19
0.21,0.46,0.108643,1007.978882,0.054999,-0.045558,0.042106,49.2466278076,-123.2301788330,86.800003,LOCKED,12,0.98,0.01,0.02,-0.19
0.22,0.46,0.108643,1007.978882,0.059951,-0.043289,0.038820,49.2466278076,-123.2301788330,86.800003,LOCKED,12,0.98,0.01,0.02,-0.19
0.22,0.46,0.174500,1007.978882,0.056403,-0.043542,0.047017,49.2466278076,-123.2301788330,86.800003,LOCKED,12,0.98,0.01,0.02,-0.19
0.22,0.46,0.103043,1007.979553,0.059531,-0.043984,0.048589,49.2466278076,-123.2301788330,86.800003,LOCKED,12,0.98,0.01,0.02,-0.19
0.23,0.46,0.103043,1007.979553,0.057490,-0.050866,0.042784,49.2466278076,-123.2301788330,86.800003,LOCKED,12,0.98,0.01,0.02,-0.19
0.24,0.47,0.241364,1007.962952,0.059617,-0.055435,0.040329,49.2466278076,-123.2301788330,86.800003,LOCKED,12,0.98,0.01,0.02,-0.19
0.24,0.48,0.241364,1007.962952,0.056140,-0.053949,0.038810,49.2466278076,-123.2301788330,86.800003,LOCKED,12,0.98,0.01,0.02,-0.19
0.25,0.48,0.183182,1007.969910,0.054267,-0.049683,0.034643,49.2466278076,-123.2301788330,86.800003,LOCKED,12,0.98,0.01,0.02,-0.19
0.26,0.48,0.183182,1007.969910,0.051960,-0.045320,0.030740,49.2466278076,-123.2301788330,86.800003,LOCKED,12,0.98,0.01,0.02,-0.19
0.26,0.49,0.254120,1007.961426,0.057844,-0.049250,0.037697,49.2466278076,-123.2301788330,86.800003,LOCKED,12,0.98,0.01,0.02,-0.20
0.27,0.49,0.254120,1007.961426,0.054035,-0.049647,0.039542,49.2466278076,-123.2301788330,86.800003,LOCKED,12,0.98,0.01,0.02,-0.20
0.28,0.50,0.196960,1007.968262,0.057493,-0.049620,0.036965,49.2466278076,-123.2301788330,86.800003,LOCKED,12,0.98,0.01,0.02,-0.20
0.28,0.50,0.196960,1007.968262,0.053965,-0.049495,0.042973,49.2466278076,-123.2301788330,86.800003,LOCKED,12,0.98,0.01,0.02,-0.20
0.29,0.50,0.148468,1007.974060,0.057435,-0.050835,0.049144,49.2466278076,-123.2301788330,86.800003,LOCKED,12,0.98,0.02,0.02,-0.20
0.29,0.50,0.148468,1007.974060,0.057258,-0.046575,0.046380,49.2466278076,-123.2301788330,86.800003,LOCKED,12,0.98,0.02,0.02,-0.20
0.29,0.50,0.183182,1007.969910,0.059104,-0.054026,0.039664,49.2466278076,-123.2301788330,86.800003,LOCKED,12,0.98,0.02,0.02,-0.20
0.30,0.50,0.183182,1007.969910,0.047443,-0.053944,0.037672,49.2466278076,-123.2301788330,86.800003,LOCKED,12,0.98,0.02,0.02,-0.20
0.30,0.50,0.169388,1007.971558,0.059923,-0.049757,0.036128,49.2466278076,-123.2301788330,86.800003,LOCKED,12,0.98,0.02,0.02,-0.20
0.30,0.50,0.169388,1007.971558,0.052285,-0.042525,0.033280,49.2466278076,-123.2301788330,86.800003,LOCKED,12,0.98,0.02,0.02,-0.20
0.30,0.49,0.029526,1007.988342,0.054369,-0.055568,0.040517,49.2466278076,-123.2301788330,86.800003,LOCKED,12,0.98,0.02,0.02,-0.20
0.30,0.48,0.029526,1007.988342,0.048802,-0.061530,0.039278,49.2466278076,-123.2301788330,86.800003,LOCKED,12,0.98,0.02,0.02,-0.20
0.29,0.47,0.064240,1007.984192,0.051932,-0.050923,0.030033,49.2466278076,-123.2301788330,86.800003,LOCKED,12,0.98,0.02,0.02,-0.20
0.29,0.47,0.064240,1007.984192,0.053691,-0.044866,0.039493,49.2466278076,-123.2301788330,86.800003,LOCKED,12,0.98,0.02,0.02,-0.20
0.29,0.46,0.015747,1007.989990,0.054484,-0.050739,0.046324,49.2466278076,-123.2301788330,86.800003,LOCKED,12,0.98,0.02,0.02,-0.20
0.28,0.45,0.015747,1007.989990,0.053487,-0.046988,0.042841,49.2466278076,-123.2301788330,86.800003,LOCKED,12,0.98,0.02,0.02,-0.20
0.28,0.45,0.076996,1007.982666,0.046843,-0.054393,0.037426,49.2466278076,-123.2301788330,86.800003,LOCKED,12,0.98,0.02,0.02,-0.20
0.28,0.45,0.076996,1007.982666,0.049918,-0.047204,0.043704,49.2466278076,-123.2301788330,86.800003,LOCKED,12,0.98,0.02,0.02,-0.20
0.28,0.44,0.095383,1007.980469,0.054510,-0.055610,0.042463,49.2466278076,-123.2301788330,86.800003,LOCKED,12,0.98,0.02,0.02,-0.20
0.28,0.44,0.095383,1007.980469,0.051765,-0.046485,0.046595,49.2466278076,-123.2301788330,86.800003,LOCKED,12,0.98,0.02,0.02,-0.20
0.28,0.43,0.081604,1007.982117,0.054301,-0.052740,0.036227,49.2466278076,-123.2301788330,86.800003,LOCKED,12,0.98,0.02,0.02,-0.20
0.28,0.43,0.081604,1007.982117,0.054629,-0.050049,0.039743,49.2466278076,-123.2301788330,86.800003,LOCKED,12,0.98,0.02,0.02,-0.20
0.28,0.43,0.081604,1007.982117,0.047779,-0.055022,0.039564,49.2466278076,-123.2301788330,86.800003,LOCKED,12,0.98,0.02,0.02,-0.20
0.28,0.42,0.081604,1007.982117,0.052657,-0.049134,0.043518,49.2466278076,-123.2301788330,86.800003,LOCKED,12,0.98,0.02,0.02,-0.20
0.27,0.41,-0.002625,1007.992188,0.051652,-0.040113,0.037310,49.2466278076,-123.2301788330,86.800003,LOCKED,12,0.98,0.02,0.02,-0.20
0.27,0.40,-0.002625,1007.992188,0.051023,-0.049615,0.033534,49.2466278076,-123.2301788330,86.800003,LOCKED,12,0.98,0.02,0.02,-0.20
0.27,0.40,0.081604,1007.982117,0.054704,-0.057141,0.023555,49.2466278076,-123.2301788330,86.800003,LOCKED,12,0.98,0.02,0.02,-0.20
0.26,0.39,0.081604,1007.982117,0.049842,-0.058258,0.031033,49.2466239929,-123.2301788330,86.800003,LOCKED,12,0.98,0.02,0.02,-0.21
0.26,0.39,0.095383,1007.980469,0.050258,-0.050116,0.041611,49.2466239929,-123.2301788330,86.800003,LOCKED,12,0.98,0.02,0.02,-0.21
0.26,0.39,0.095383,1007.980469,0.053024,-0.054399,0.040110,49.2466239929,-123.2301788330,86.800003,LOCKED,12,0.98,0.02,0.02,-0.21
0.26,0.39,0.055054,1007.985291,0.054687,-0.051016,0.044094,49.2466239929,-123.2301788330,86.800003,LOCKED,12,0.98,0.02,0.02,-0.21
0.26,0.38,0.055054,1007.985291,0.057853,-0.046952,0.040959,49.2466239929,-123.2301788330,86.800003,LOCKED,12,0.98,0.02,0.02,-0.21
0.25,0.38,0.001465,1007.991699,0.056299,-0.052120,0.048388,49.2466239929,-123.2301788330,86.800003,LOCKED,12,0.98,0.02,0.02,-0.21
0.25,0.37,0.001465,1007.991699,0.055952,-0.049343,0.047535,49.2466239929,-123.2301788330,86.800003,LOCKED,12,0.98,0.02,0.02,-0.21
0.24,0.36,-0.011810,1007.993286,0.056562,-0.052633,0.040040,49.2466239929,-123.2301788330,86.800003,LOCKED,12,0.98,0.02,0.02,-0.21
0.24,0.35,-0.011810,1007.993286,0.046578,-0.056178,0.036856,49.2466239929,-123.2301788330,86.800003,LOCKED,12,0.98,0.02,0.02,-0.21
0.24,0.35,0.014221,1007.990173,0.055441,-0.057354,0.031575,49.2466239929,-123.2301788330,86.800003,LOCKED,12,0.98,0.02,0.02,-0.21
0.23,0.34,0.014221,1007.990173,0.052085,-0.057725,0.032179,49.2466239929,-123.2301788330,86.800003,LOCKED,12,0.98,0.02,0.02,-0.21
0.23,0.33,0.010651,1007.990601,0.053743,-0.055753,0.034393,49.2466239929,-123.2301788330,86.800003,LOCKED,12,0.98,0.02,0.02,-0.21
0.22,0.33,0.010651,1007.990601,0.054932,-0.058705,0.029822,49.2466239929,-123.2301788330,86.800003,LOCKED,12,0.98,0.02,0.02,-0.21
0.22,0.32,-0.077148,1008.001160,0.054448,-0.050749,0.031632,49.2466239929,-123.2301788330,86.800003,LOCKED,12,0.98,0.02,0.02,-0.21
0.21,0.31,-0.077148,1008.001160,0.052820,-0.054115,0.037423,49.2466239929,-123.2301788330,86.800003,LOCKED,12,0.98,0.02,0.02,-0.21
0.20,0.30,-0.090424,1008.002747,0.047725,-0.048526,0.043720,49.2466239929,-123.2301788330,86.800003,LOCKED,12,0.98,0.02,0.02,-0.21
0.19,0.29,-0.090424,1008.002747,0.050925,-0.049987,0.034975,49.2466239929,-123.2301788330,86.800003,LOCKED,12,0.98,0.02,0.02,-0.21
0.19,0.28,-0.090424,1008.002747,0.049204,-0.045426,0.046481,49.2466239929,-123.2301788330,86.800003,LOCKED,12,0.98,0.02,0.02,-0.21
0.18,0.27,-0.090424,1008.002747,0.064371,-0.049021,0.047946,49.2466239929,-123.2301788330,86.800003,LOCKED,12,0.98,0.02,0.02,-0.21
0.17,0.27,-0.077148,1008.001160,0.056030,-0.050387,0.043317,49.2466239929,-123.2301788330,86.800003,LOCKED,12,0.98,0.02,0.02,-0.21
0.17,0.26,-0.077148,1008.001160,0.056217,-0.056931,0.036916,49.2466239929,-123.2301788330,86.800003,LOCKED,12,0.98,0.02,0.02,-0.21
0.16,0.26,-0.063873,1007.999512,0.048222,-0.053703,0.047386,49.2466239929,-123.2301788330,86.800003,LOCKED,12,0.98,0.02,0.02,-0.21
0.16,0.25,-0.063873,1007.999512,0.046989,-0.055960,0.048069,49.2466239929,-123.2301788330,86.800003,LOCKED,12,0.98,0.02,0.02,-0.21
0.15,0.24,-0.063873,1007.999512,0.051609,-0.059944,0.028400,49.2466239929,-123.2301788330,86.800003,LOCKED,12,0.98,0.02,0.02,-0.21
0.15,0.24,-0.063873,1007.999512,0.049057,-0.053899,0.035114,49.2466239929,-123.2301788330,86.800003,LOCKED,12,0.98,0.02,0.02,-0.21
0.14,0.24,0.023407,1007.989075,0.061285,-0.057254,0.042813,49.2466239929,-123.2301788330,86.800003,LOCKED,12,0.98,0.02,0.02,-0.22
0.14,0.24,0.023407,1007.989075,0.055301,-0.053719,0.036104,49.2466239929,-123.2301788330,86.800003,LOCKED,12,0.98,0.02,0.02,-0.22
0.14,0.24,0.010651,1007.990601,0.051108,-0.056135,0.039339,49.2466239929,-123.2301788330,86.800003,LOCKED,12,0.98,0.02,0.02,-0.22
0.14,0.24,0.010651,1007.990601,0.056130,-0.050687,0.043050,49.2466239929,-123.2301788330,86.800003,LOCKED,12,0.98,0.02,0.02,-0.22
0.14,0.24,0.023407,1007.989075,0.050316,-0.041833,0.042194,49.2466239929,-123.2301788330,86.800003,LOCKED,12,0.98,0.02,0.02,-0.22
0.14,0.24,0.023407,1007.989075,0.037894,-0.039789,0.047653,49.2466239929,-123.2301788330,86.800003,LOCKED,12,0.98,0.02,0.02,-0.22
0.14,0.24,0.050461,1007.985840,0.051844,-0.062539,0.039528,49.2466239929,-123.2301788330,86.800003,LOCKED,12,0.98,0.02,0.02,-0.22
0.14,0.24,0.050461,1007.985840,0.001392,-0.123106,0.016412,49.2466239929,-123.2301788330,86.800003,LOCKED,12,0.98,0.02,0.02,-0.22
0.14,0.20,0.050461,1007.985840,0.003129,-0.367093,-0.227510,49.2466239929,-123.2301788330,86.800003,LOCKED,12,0.97,0.01,0.03,-0.22
0.14,0.22,0.050461,1007.985840,0.081665,-0.042066,0.175635,49.2466239929,-123.2301788330,86.800003,LOCKED,12,0.97,0.02,0.03,-0.22
0.13,0.25,-0.051117,1007.997986,0.156362,0.070399,0.193189,49.2466239929,-123.2301788330,86.800003,LOCKED,12,0.97,0.02,0.03,-0.22
0.13,0.26,-0.051117,1007.997986,0.104054,0.039914,0.122965,49.2466239929,-123.2301788330,86.800003,LOCKED,12,0.97,0.03,0.03,-0.23
0.13,0.27,0.036682,1007.987488,0.116879,0.035736,0.084096,49.2466239929,-123.2301788330,86.800003,LOCKED,12,0.97,0.03,0.03,-0.23
0.13,0.28,0.036682,1007.987488,0.060992,-0.041729,0.088423,49.2466239929,-123.2301788330,86.800003,LOCKED,12,0.97,0.03,0.03,-0.23
0.13,0.29,0.064240,1007.984192,0.060266,-0.045245,0.081891,49.2466239929,-123.2301788330,86.800003,LOCKED,12,0.97,0.03,0.03,-0.23
0.14,0.30,0.064240,1007.984192,0.049459,-0.069488,0.063527,49.2466239929,-123.2301788330,86.800003,LOCKED,12,0.97,0.03,0.03,-0.23
0.14,0.31,0.134689,1007.975708,0.047333,-0.080958,0.057674,49.2466239929,-123.2301788330,86.800003,LOCKED,12,0.97,0.03,0.03,-0.23
0.15,0.31,0.134689,1007.975708,0.037939,-0.066035,0.047063,49.2466239929,-123.2301788330,86.800003,LOCKED,12,0.97,0.03,0.03,-0.23
0.15,0.32,0.103043,1007.979553,0.062098,-0.076921,0.055193,49.2466239929,-123.2301788330,86.800003,LOCKED,12,0.97,0.03,0.03,-0.23
0.15,0.32,0.103043,1007.979553,0.040336,-0.064398,0.038028,49.2466239929,-123.2301788330,86.800003,LOCKED,12,0.97,0.03,0.03,-0.23
0.16,0.33,0.090271,1007.981079,0.053281,-0.083113,0.047012,49.2466239929,-123.2301788330,86.800003,LOCKED,12,0.97,0.03,0.03,-0.23
0.16,0.33,0.090271,1007.981079,0.031527,-0.087246,0.023535,49.2466239929,-123.2301788330,86.800003,LOCKED,12,0.97,0.03,0.03,-0.23
0.16,0.33,0.103043,1007.979553,0.059763,-0.094759,0.022466,49.2466239929,-123.2301788330,86.800003,LOCKED,12,0.97,0.03,0.03,-0.23
0.17,0.33,0.103043,1007.979553,0.030022,-0.089785,0.018773,49.2466239929,-123.2301788330,86.800003,LOCKED,12,0.97,0.03,0.03,-0.23
0.17,0.33,0.161743,1007.972473,0.045112,-0.073472,0.016927,49.2466239929,-123.2301788330,86.800003,LOCKED,12,0.97,0.03,0.02,-0.23
0.18,0.34,0.161743,1007.972473,0.023833,-0.061502,0.042895,49.2466239929,-123.2301788330,86.800003,LOCKED,12,0.97,0.03,0.02,-0.23
0.18,0.34,0.095383,1007.980469,0.024635,-0.047527,0.046780,49.2466239929,-123.2301788330,86.800003,LOCKED,12,0.97,0.03,0.02,-0.23
0.18,0.34,0.095383,1007.980469,0.040242,-0.076153,0.020540,49.2466239929,-123.2301788330,86.800003,LOCKED,12,0.97,0.03,0.01,-0.23
0.19,0.35,0.152542,1007.973572,0.038967,-0.077019,0.043953,49.2466239929,-123.2301788330,86.800003,LOCKED,12,0.97,0.03,0.01,-0.23
0.19,0.35,0.152542,1007.973572,0.031108,-0.094194,0.053256,49.2466239929,-123.2301788330,86.800003,LOCKED,12,0.97,0.03,-0.00,-0.23
0.19,0.37,0.120895,1007.977356,0.005407,0.025688,0.106800,49.2466239929,-123.2301788330,86.800003,LOCKED,12,0.97,0.03,-0.00,-0.23
0.20,0.38,0.120895,1007.977356,0.028856,-0.022552,0.093012,49.2466239929,-123.2301788330,86.800003,LOCKED,12,0.97,0.03,-0.01,-0.23
0.20,0.39,0.120895,1007.977356,0.028173,-0.110972,0.047460,49.2466239929,-123.2301788330,86.800003,LOCKED,12,0.97,0.03,-0.01,-0.23
0.20,0.40,0.120895,1007.977356,0.074843,-0.022086,0.092806,49.2466239929,-123.2301788330,86.800003,LOCKED,12,0.97,0.03,-0.01,-0.23
0.21,0.40,0.108643,1007.978882,0.042960,-0.032675,0.051007,49.2466239929,-123.2301788330,86.800003,LOCKED,12,0.97,0.03,-0.02,-0.23
0.21,0.41,0.108643,1007.978882,0.043070,-0.065251,0.104752,49.2466239929,-123.2301788330,86.800003,LOCKED,12,0.97,0.02,-0.02,-0.23
0.21,0.42,0.108643,1007.978882,0.024763,-0.053303,0.088696,49.2466239929,-123.2301788330,86.800003,LOCKED,12,0.97,0.03,-0.02,-0.23
0.22,0.43,0.108643,1007.978882,0.052873,-0.053789,0.077654,49.2466239929,-123.2301788330,86.800003,LOCKED,12,0.97,0.02,-0.02,-0.23
0.22,0.44,0.161743,1007.972473,0.001672,-0.053499,0.065330,49.2466239929,-123.2301788330,86.800003,LOCKED,12,0.97,0.02,-0.02,-0.22
0.23,0.44,0.161743,1007.972473,0.036814,-0.078469,0.041999,49.2466239929,-123.2301788330,86.800003,LOCKED,12,0.97,0.02,-0.02,-0.22
0.23,0.45,0.218903,1007.972473,0.025388,-0.049421,0.019916,49.2466239929,-123.2301788330,86.800003,LOCKED,12,0.97,0.02,-0.02,-0.22
0.24,0.44,0.218903,1007.965637,0.013586,-0.096289,-0.024029,49.2466239929,-123.2301788330,86.800003,LOCKED,12,0.98,0.02,-0.02,-0.22
0.24,0.43,0.166336,1007.965637,0.043399,-0.077765,-0.015002,49.2466239929,-123.2301788330,86.800003,LOCKED,12,0.98,0.03,-0.02,-0.22
0.25,0.43,0.166336,1007.971924,0.022561,-0.095936,0.005197,49.2466239929,-123.2301788330,86.800003,LOCKED,12,0.98,0.03,-0.02,-0.21
0.25,0.44,0.166336,1007.971924,0.035859,-0.089282,0.058784,49.2466239929,-123.2301788330,86.800003,LOCKED,12,0.98,0.04,-0.02,-0.21
0.25,0.44,0.095383,1007.980469,-0.013485,-0.037012,0.103365,49.2466239929,-123.2301788330,86.800003,LOCKED,12,0.98,0.04,-0.03,-0.21
0.25,0.44,0.095383,1007.980469,0.092301,-0.042565,0.046018,49.2466239929,-123.2301788330,86.800003,LOCKED,12,0.98,0.04,-0.02,-0.21
0.26,0.43,0.108643,1007.978882,0.044995,-0.117999,-0.006992,49.2466239929,-123.2301788330,86.800003,LOCKED,12,0.98,0.03,-0.02,-0.21
0.26,0.41,0.108643,1007.978882,0.079257,-0.118892,-0.071993,49.2466239929,-123.2301788330,86.800003,LOCKED,12,0.98,0.03,-0.02,-0.21
0.25,0.41,0.023407,1007.989075,0.039686,-0.037745,0.036121,49.2466239929,-123.2301788330,86.800003,LOCKED,12,0.98,0.04,-0.02,-0.20
0.25,0.37,0.023407,1007.989075,0.040099,-0.090848,-0.142323,49.2466239929,-123.2301788330,86.800003,LOCKED,12,0.98,0.04,-0.02,-0.20
0.25,0.34,0.095383,1007.980469,0.133731,0.180913,-0.105032,49.2466239929,-123.2301788330,86.800003,LOCKED,12,0.98,0.03,-0.03,-0.20
0.25,0.27,0.095383,1007.980469,0.052926,0.064198,-0.374366,49.2466239929,-123.2301788330,86.800003,LOCKED,12,0.98,0.03,-0.04,-0.21
0.25,0.26,0.134689,1007.975708,-0.045134,-0.190715,-0.014445,49.2466239929,-123.2301788330,86.800003,LOCKED,12,0.97,0.02,-0.06,-0.22
0.25,0.30,0.134689,1007.975708,-0.013744,-0.305964,0.277211,49.2466239929,-123.2301788330,86.800003,LOCKED,12,0.97,0.02,-0.08,-0.22
0.25,0.37,0.108643,1007.978882,-0.035643,0.042756,0.431029,49.2466239929,-123.2301788330,86.800003,LOCKED,12,0.97,0.03,-0.09,-0.22
0.25,0.39,0.108643,1007.978882,0.042000,-0.178877,0.146089,49.2466239929,-123.2301788330,86.800003,LOCKED,12,0.97,0.04,-0.09,-0.22
0.25,0.37,0.067810,1007.983765,0.047391,-0.051053,-0.019270,49.2466239929,-123.2301788330,86.800003,LOCKED,12,0.97,0.04,-0.08,-0.22
0.24,0.32,0.067810,1007.983765,0.016360,-0.039420,-0.254315,49.2466239929,-123.2301788330,86.800003,LOCKED,12,0.97,0.05,-0.08,-0.22
0.24,0.69,0.041779,1007.986877,-0.080023,-1.451474,2.139776,49.2466239929,-123.2301788330,86.800003,LOCKED,12,0.97,0.06,-0.09,-0.22
0.25,0.57,0.041779,1007.986877,-0.104086,-0.657114,-0.566825,49.2466239929,-123.2301788330,86.800003,LOCKED,12,0.97,0.07,-0.08,-0.22
0.25,0.54,0.055054,1007.985291,-0.057737,-0.124859,-0.128545,49.2466239929,-123.2301788330,86.800003,LOCKED,12,0.97,0.08,-0.08,-0.22
0.25,0.53,0.055054,1007.985291,0.053924,-0.085626,0.023275,49.2466239929,-123.2301788330,86.800003,LOCKED,12,0.97,0.08,-0.08,-0.22
0.25,0.53,0.010651,1007.990601,-0.096929,-0.093325,0.081810,49.2466239929,-123.2301788330,86.800003,LOCKED,12,0.97,0.08,-0.07,-0.22
0.25,0.54,0.010651,1007.990601,-0.038945,-0.040384,0.131759,49.2466239929,-123.2301788330,86.800003,LOCKED,12,0.97,0.09,-0.07,-0.22
0.25,0.54,0.023407,1007.989075,-0.025492,-0.121028,0.051208,49.2466239929,-123.2301788330,86.800003,LOCKED,12,0.97,0.09,-0.07,-0.22
0.25,0.54,0.023407,1007.989075,-0.011780,-0.107118,0.047114,49.2466239929,-123.2301788330,86.800003,LOCKED,12,0.97,0.09,-0.07,-0.22
0.24,0.52,-0.063873,1007.999512,0.055383,-0.083647,-0.006593,49.2466239929,-123.2301788330,86.800003,LOCKED,12,0.97,0.09,-0.07,-0.22
0.24,0.51,-0.063873,1007.999512,0.037115,-0.072570,0.042783,49.2466239929,-123.2301788330,86.800003,LOCKED,12,0.97,0.10,-0.08,-0.22
0.23,0.50,-0.104202,1008.004395,0.037486,-0.080280,0.036987,49.2466239929,-123.2301788330,86.800003,LOCKED,12,0.97,0.10,-0.08,-0.22
0.23,0.47,-0.104202,1008.004395,0.046910,-0.115479,-0.012641,49.2466239929,-123.2301788330,86.800003,LOCKED,12,0.97,0.10,-0.08,-0.22
0.22,0.47,-0.116959,1008.005920,0.029974,-0.154772,0.103155,49.2466239929,-123.2301788330,86.800003,LOCKED,12,0.97,0.11,-0.08,-0.22
0.21,0.45,-0.116959,1008.005920,-0.084664,-0.202874,-0.051259,49.2466239929,-123.2301788330,86.800003,LOCKED,12,0.96,0.12,-0.08,-0.22
0.21,0.43,-0.116959,1008.005920,-0.142284,-0.126742,0.005109,49.2466239929,-123.2301788330,86.800003,LOCKED,12,0.96,0.13,-0.08,-0.22
0.20,0.37,-0.116959,1008.005920,-0.228072,-0.117699,-0.245380,49.2466239929,-123.2301788330,86.800003,LOCKED,12,0.96,0.16,-0.07,-0.22
0.19,0.34,-0.083267,1008.001892,0.080289,-0.206971,-0.084856,49.2466239929,-123.2301788330,86.800003,LOCKED,12,0.95,0.20,-0.05,-0.22
0.19,0.28,-0.083267,1008.001892,-0.847040,0.680222,-0.212897,49.2466239929,-123.2301788330,86.800003,LOCKED,12,0.96,0.19,-0.04,-0.21
0.18,0.27,-0.162903,1008.011414,-0.013481,-0.153782,0.022105,49.2466239929,-123.2301788330,86.800003,LOCKED,12,0.96,0.19,-0.05,-0.22
0.17,0.28,-0.162903,1008.011414,0.154847,-0.027045,0.185402,49.2466239929,-123.2301788330,86.800003,LOCKED,12,0.95,0.19,-0.06,-0.22
0.15,0.24,-0.188934,1008.014526,0.200516,-0.169537,-0.104063,49.2466239929,-123.2301788330,86.800003,LOCKED,12,0.96,0.18,-0.06,-0.22
0.14,0.23,-0.188934,1008.014526,0.076378,-0.153669,0.001925,49.2466239929,-123.2301788330,86.800003,LOCKED,12,0.96,0.18,-0.06,-0.23
0.13,0.20,-0.343079,1008.033020,-0.055130,-0.157167,-0.016278,49.2466239929,-123.2301788330,86.800003,LOCKED,12,0.96,0.18,-0.05,-0.22
0.11,0.19,-0.343079,1008.033020,-0.097336,-0.131592,0.086457,49.2466239929,-123.2301788330,86.800003,LOCKED,12,0.96,0.19,-0.05,-0.22
0.09,0.17,-0.343079,1008.033020,0.004823,-0.125190,0.067953,49.2466239929,-123.2301788330,86.800003,LOCKED,12,0.95,0.19,-0.06,-0.22
0.08,0.12,-0.343079,1008.033020,0.083984,-0.153379,-0.136503,49.2466239929,-123.2301788330,86.800003,LOCKED,12,0.95,0.20,-0.06,-0.22
0.06,0.11,-0.308884,1008.028931,-0.011476,-0.081063,0.023706,49.2466239929,-123.2301788330,86.800003,LOCKED,12,0.95,0.20,-0.06,-0.22
0.05,0.09,-0.308884,1008.028931,-0.034317,-0.133407,0.026875,49.2466239929,-123.2301788330,86.800003,LOCKED,12,0.95,0.20,-0.06,-0.22
0.03,0.08,-0.291016,1008.026794,-0.300870,-0.120758,0.035172,49.2466239929,-123.2301788330,86.800003,LOCKED,12,0.95,0.20,-0.06,-0.22
0.02,0.01,-0.291016,1008.026794,-0.325152,-0.045724,-0.288982,49.2466239929,-123.2301788330,86.800003,LOCKED,12,0.95,0.20,-0.06,-0.22
0.00,0.03,-0.402283,1008.040100,-0.066123,0.216243,0.209795,49.2466239929,-123.2301788330,86.800003,LOCKED,12,0.95,0.20,-0.06,-0.23
-0.02,-0.01,-0.402283,1008.040100,0.187333,-0.360432,-0.092970,49.2466239929,-123.2301788330,86.800003,LOCKED,12,0.95,0.20,-0.07,-0.23
-0.03,-0.01,-0.349197,1008.033752,0.163330,-0.174730,0.143374,49.2466239929,-123.2301788330,86.800003,LOCKED,12,0.95,0.20,-0.07,-0.23
-0.04,-0.05,-0.349197,1008.033752,-0.002785,-0.120560,-0.136233,49.2466239929,-123.2301788330,86.800003,LOCKED,12,0.95,0.20,-0.07,-0.23
-0.06,-0.05,-0.295609,1008.027344,0.006191,-0.071426,0.066890,49.2466239929,-123.2301788330,86.800003,LOCKED,12,0.95,0.20,-0.08,-0.23
-0.07,-0.06,-0.295609,1008.027344,-0.003417,-0.085528,0.024911,49.2466239929,-123.2301788330,86.800003,LOCKED,12,0.95,0.20,-0.08,-0.23
-0.08,-0.06,-0.229263,1008.019348,0.021314,-0.098249,0.023965,49.2466239929,-123.2301788330,86.800003,LOCKED,12,0.95,0.20,-0.08,-0.24
-0.08,-0.07,-0.229263,1008.019348,0.039392,-0.096366,0.018259,49.2466239929,-123.2301788330,86.800003,LOCKED,12,0.95,0.20,-0.08,-0.24
-0.09,-0.07,-0.131256,1008.007629,-0.000074,-0.111293,-0.013689,49.2466239929,-123.2301788330,86.800003,LOCKED,12,0.95,0.21,-0.08,-0.24
-0.09,-0.07,-0.131256,1008.007629,-0.056029,-0.133577,0.031630,49.2466239929,-123.2301788330,86.800003,LOCKED,12,0.95,0.21,-0.08,-0.24
-0.09,-0.09,-0.117981,1008.006042,-0.140409,-0.115747,-0.103956,49.2466239929,-123.2301788330,86.800003,LOCKED,12,0.95,0.21,-0.08,-0.24
-0.10,-0.12,-0.117981,1008.006042,0.126662,-0.110269,-0.162810,49.2466239929,-123.2301788330,86.800003,LOCKED,12,0.95,0.21,-0.08,-0.24
-0.10,-0.12,-0.229263,1008.019348,0.084429,-0.083808,0.053159,49.2466239929,-123.2301788330,86.800003,LOCKED,12,0.94,0.21,-0.08,-0.24
-0.11,-0.12,-0.229263,1008.019348,0.011659,-0.151531,0.028644,49.2466239929,-123.2301788330,86.800003,LOCKED,12,0.94,0.21,-0.08,-0.24
-0.12,-0.12,-0.295609,1008.027344,0.007455,-0.122426,0.035369,49.2466239929,-123.2301788330,86.800003,LOCKED,12,0.94,0.21,-0.09,-0.24
-0.13,-0.13,-0.295609,1008.027344,0.023532,-0.102025,0.018501,49.2466239929,-123.2301788330,86.800003,LOCKED,12,0.94,0.21,-0.09,-0.24
-0.14,-0.13,-0.295609,1008.027344,0.218735,-0.014605,0.018775,49.2466239929,-123.2301788330,86.800003,LOCKED,12,0.94,0.21,-0.09,-0.25
-0.15,-0.14,-0.295609,1008.027344,0.071596,-0.088921,0.016276,49.2466239929,-123.2301788330,86.800003,LOCKED,12,0.94,0.21,-0.09,-0.25
-0.16,-0.14,-0.282333,1008.025757,0.030188,-0.069682,0.058117,49.2466239929,-123.2301788330,88.000000,LOCKED,11,0.94,0.21,-0.08,-0.25
-0.17,-0.11,-0.282333,1008.025757,-0.103539,-0.236801,0.181316,49.2466239929,-123.2301788330,88.000000,LOCKED,11,0.94,0.21,-0.08,-0.25
-0.17,-0.11,-0.242523,1008.020935,0.022980,-0.109822,0.048126,49.2466239929,-123.2301788330,88.000000,LOCKED,11,0.94,0.21,-0.08,-0.25
-0.18,-0.10,-0.242523,1008.020935,-0.013377,-0.089459,0.048409,49.2466239929,-123.2301788330,88.000000,LOCKED,11,0.94,0.21,-0.09,-0.25
-0.18,-0.10,-0.276718,1008.025085,0.036754,-0.090515,0.020555,49.2466239929,-123.2301788330,88.000000,LOCKED,11,0.94,0.22,-0.09,-0.25
-0.19,-0.10,-0.276718,1008.025085,0.048250,-0.077601,0.033409,49.2466239929,-123.2301788330,88.000000,LOCKED,11,0.94,0.22,-0.09,-0.25
-0.19,-0.10,-0.249680,1008.021851,0.029450,-0.092012,0.029649,49.2466239929,-123.2301788330,88.000000,LOCKED,11,0.94,0.22,-0.09,-0.25
-0.20,-0.10,-0.249680,1008.021851,-0.014637,-0.112360,0.021972,49.2466239929,-123.2301788330,88.000000,LOCKED,11,0.94,0.22,-0.09,-0.24
-0.20,-0.11,-0.237427,1008.020325,-0.038750,-0.085463,-0.024490,49.2466239929,-123.2301788330,88.000000,LOCKED,11,0.94,0.22,-0.09,-0.24
-0.20,-0.09,-0.237427,1008.020325,-0.109818,-0.048469,0.119444,49.2466239929,-123.2301788330,88.000000,LOCKED,11,0.94,0.22,-0.08,-0.24
-0.21,-0.06,-0.249680,1008.021851,0.583999,-0.289545,0.169299,49.2466239929,-123.2301788330,88.000000,LOCKED,11,0.94,0.22,-0.09,-0.24
-0.21,-0.07,-0.249680,1008.021851,0.086217,-0.048866,-0.035246,49.2466239929,-123.2301788330,88.000000,LOCKED,11,0.94,0.22,-0.09,-0.24
-0.21,-0.06,-0.196594,1008.015442,0.026676,-0.098882,0.017790,49.2466239929,-123.2301788330,88.000000,LOCKED,11,0.94,0.22,-0.08,-0.24
-0.21,-0.06,-0.196594,1008.015442,-0.004346,-0.106798,0.032231,49.2466239929,-123.2301788330,88.000000,LOCKED,11,0.94,0.22,-0.08,-0.24
-0.21,-0.05,-0.196594,1008.015442,0.022888,-0.106911,0.029365,49.2466239929,-123.2301788330,88.000000,LOCKED,11,0.94,0.22,-0.08,-0.24
-0.21,-0.05,-0.196594,1008.015442,-0.015140,-0.151903,0.025358,49.2466239929,-123.2301788330,88.000000,LOCKED,11,0.94,0.21,-0.08,-0.23
-0.21,-0.03,-0.162903,1008.011414,-0.023372,-0.141783,0.058317,49.2466239929,-123.2301788330,88.000000,LOCKED,11,0.94,0.21,-0.08,-0.23
-0.21,-0.02,-0.162903,1008.011414,0.007144,-0.106575,0.044304,49.2466239929,-123.2301788330,88.000000,LOCKED,11,0.94,0.22,-0.08,-0.23
-0.20,-0.01,-0.020493,1007.994324,0.052722,-0.080533,0.007454,49.2466239929,-123.2301788330,88.000000,LOCKED,11,0.94,0.22,-0.09,-0.24
-0.19,0.01,-0.020493,1007.994324,0.047710,-0.080720,0.040341,49.2466239929,-123.2301788330,88.000000,LOCKED,11,0.94,0.22,-0.09,-0.24
-0.19,0.02,-0.047028,1007.997498,0.032674,-0.113669,0.041076,49.2466239929,-123.2301788330,88.000000,LOCKED,11,0.94,0.22,-0.09,-0.23
-0.18,0.04,-0.047028,1007.997498,-0.029105,-0.101581,0.050627,49.2466239929,-123.2301788330,88.000000,LOCKED,11,0.94,0.22,-0.08,-0.23
-0.17,0.05,-0.020493,1007.994324,-0.122767,0.012613,0.023779,49.2466239929,-123.2301788330,88.000000,LOCKED,11,0.94,0.23,-0.08,-0.24
-0.16,0.08,-0.020493,1007.994324,-0.021739,-0.152588,0.120462,49.2466239929,-123.2301788330,88.000000,LOCKED,11,0.94,0.23,-0.08,-0.24
-0.15,0.10,0.024933,1007.988892,0.043149,-0.149196,0.078443,49.2466239929,-123.2301788330,88.000000,LOCKED,11,0.94,0.24,-0.09,-0.24
-0.14,0.16,0.024933,1007.988892,0.019885,-0.069091,0.231461,49.2466239929,-123.2301788330,88.000000,LOCKED,11,0.94,0.24,-0.09,-0.24
-0.14,0.19,-0.060303,1007.999084,0.011411,-0.080920,0.178548,49.2466239929,-123.2301788330,88.000000,LOCKED,11,0.94,0.24,-0.08,-0.24
-0.13,0.24,-0.060303,1007.999084,-0.012406,-0.137367,0.261632,49.2466239929,-123.2301788330,88.000000,LOCKED,11,0.94,0.23,-0.08,-0.24
-0.13,0.29,-0.131256,1008.007629,0.014277,-0.169895,0.246815,49.2466239929,-123.2301788330,88.000000,LOCKED,11,0.94,0.22,-0.08,-0.24
-0.12,0.30,-0.131256,1008.007629,0.027804,-0.135191,0.098633,49.2466239929,-123.2301788330,88.000000,LOCKED,11,0.95,0.20,-0.07,-0.24
-0.12,0.30,-0.144531,1008.009216,0.033576,-0.077006,0.001265,49.2466239929,-123.2301788330,88.000000,LOCKED,11,0.95,0.19,-0.06,-0.24
-0.11,0.30,-0.144531,1008.009216,0.025388,-0.039184,0.002515,49.2466239929,-123.2301788330,88.000000,LOCKED,11,0.95,0.17,-0.05,-0.24
-0.11,0.30,-0.104706,1008.004456,0.071291,-0.085504,-0.020846,49.2466239929,-123.2301788330,88.000000,LOCKED,11,0.96,0.16,-0.04,-0.24
-0.10,0.30,-0.104706,1008.004456,0.103648,-0.119971,0.021117,49.2466239929,-123.2301788330,88.000000,LOCKED,11,0.96,0.15,-0.03,-0.24
-0.10,0.29,-0.157791,1008.004456,0.082195,-0.090843,-0.063507,49.2466239929,-123.2301788330,88.000000,LOCKED,11,0.96,0.14,-0.02,-0.24
-0.10,0.26,-0.157791,1008.010803,0.037442,-0.032599,-0.126873,49.2466239929,-123.2301788330,88.000000,LOCKED,11,0.96,0.14,-0.01,-0.24
-0.10,0.23,-0.157791,1008.010803,-0.019576,0.026139,-0.144516,49.2466239929,-123.2301788330,88.000000,LOCKED,11,0.96,0.14,-0.00,-0.24
-0.10,0.21,-0.184845,1008.014038,-0.009724,0.000418,-0.100280,49.2466239929,-123.2301788330,88.000000,LOCKED,11,0.96,0.14,0.00,-0.25
-0.10,0.20,-0.184845,1008.014038,0.057431,-0.111341,-0.030469,49.2466239929,-123.2301788330,88.000000,LOCKED,11,0.96,0.14,0.00,-0.25
-0.10,0.20,-0.269577,1008.024231,0.056536,-0.177281,0.072129,49.2466239929,-123.2301788330,88.000000,LOCKED,11,0.96,0.14,0.00,-0.25
-0.10,0.21,-0.269577,1008.024231,0.028437,-0.119253,0.127099,49.2466239929,-123.2301788330,88.000000,LOCKED,11,0.96,0.14,0.01,-0.25
-0.11,0.21,-0.295609,1008.027344,0.005826,-0.102687,0.020292,49.2466239929,-123.2301788330,88.000000,LOCKED,11,0.96,0.15,0.01,-0.25
-0.11,0.20,-0.295609,1008.027344,-0.017177,-0.055776,0.036597,49.2466239929,-123.2301788330,88.000000,LOCKED,11,0.96,0.15,0.01,-0.26
-0.12,0.21,-0.295609,1008.027344,0.035865,-0.107146,0.125623,49.2466239929,-123.2301788330,88.000000,LOCKED,11,0.95,0.15,0.02,-0.26
-0.12,0.23,-0.295609,1008.027344,0.083025,-0.155576,0.130463,49.2466239929,-123.2301788330,88.000000,LOCKED,11,0.95,0.15,0.02,-0.26
-0.12,0.23,-0.184845,1008.014038,0.054619,-0.105922,0.007576,49.2466239929,-123.2301788330,88.000000,LOCKED,11,0.95,0.15,0.02,-0.26
-0.12,0.19,-0.184845,1008.014038,0.025048,0.002398,-0.196154,49.2466239929,-123.2301788330,88.000000,LOCKED,11,0.95,0.15,0.03,-0.26
-0.12,0.14,-0.157791,1008.010803,0.006058,-0.053751,-0.265522,49.2466239929,-123.2301788330,88.000000,LOCKED,11,0.95,0.16,0.02,-0.26
-0.12,0.16,-0.157791,1008.010803,0.020368,-0.157900,0.128199,49.2466239929,-123.2301788330,88.000000,LOCKED,11,0.95,0.16,0.02,-0.26
-0.12,0.22,-0.170563,1008.012329,0.000804,-0.194450,0.349269,49.2466239929,-123.2301788330,88.000000,LOCKED,11,0.95,0.16,0.01,-0.26
-0.11,0.28,-0.170563,1008.012329,-0.025633,-0.126188,0.369118,49.2466239929,-123.2301788330,88.000000,LOCKED,11,0.95,0.16,0.01,-0.26
-0.11,0.29,-0.170563,1008.012329,0.010121,-0.108363,0.094194,49.2466239929,-123.2301788330,88.000000,LOCKED,11,0.96,0.14,0.02,-0.26
-0.11,0.26,-0.170563,1008.012329,0.024045,-0.068875,-0.148430,49.2466239929,-123.2301788330,88.000000,LOCKED,11,0.96,0.14,0.02,-0.26
-0.11,0.22,-0.184845,1008.014038,0.016837,-0.110110,-0.215276,49.2466239929,-123.2301788330,88.000000,LOCKED,11,0.96,0.14,0.02,-0.26
-0.11,0.20,-0.184845,1008.014038,0.011200,-0.156909,-0.088393,49.2466239929,-123.2301788330,88.000000,LOCKED,11,0.95,0.14,0.02,-0.26
-0.11,0.22,-0.198120,1008.015625,0.066162,-0.132740,0.160363,49.2466239929,-123.2301788330,88.000000,LOCKED,11,0.95,0.15,0.02,-0.26
-0.11,0.25,-0.198120,1008.015625,0.025108,-0.077671,0.198486,49.2466239929,-123.2301788330,88.000000,LOCKED,11,0.95,0.15,0.02,-0.26
-0.10,0.27,-0.139420,1008.008606,0.003189,-0.033821,0.116912,49.2466239929,-123.2301788330,88.000000,LOCKED,11,0.95,0.15,0.02,-0.26
-0.10,0.28,-0.139420,1008.008606,-0.016793,-0.033738,0.074830,49.2466239929,-123.2301788330,88.000000,LOCKED,11,0.95,0.14,0.02,-0.26
-0.10,0.30,-0.166977,1008.011902,0.017626,-0.120010,0.125813,49.2466239929,-123.2301788330,88.000000,LOCKED,11,0.95,0.14,0.02,-0.26
-0.10,0.33,-0.166977,1008.011902,0.042069,-0.173128,0.182596,49.2466239929,-123.2301788330,88.000000,LOCKED,11,0.95,0.14,0.02,-0.27
-0.09,0.36,-0.081741,1008.001709,0.040197,-0.137428,0.153955,49.2466239929,-123.2301788330,88.000000,LOCKED,11,0.95,0.13,0.03,-0.27
-0.08,0.36,-0.081741,1008.001709,0.008511,-0.106323,0.003186,49.2466239929,-123.2301788330,88.000000,LOCKED,11,0.96,0.12,0.03,-0.27
-0.08,0.35,-0.095016,1008.003296,-0.017770,-0.091177,-0.055716,49.2466239929,-123.2301788330,88.000000,LOCKED,11,0.96,0.12,0.04,-0.27
-0.07,0.36,-0.095016,1008.003296,-0.011683,-0.118324,0.054428,49.2466239929,-123.2301788330,88.000000,LOCKED,11,0.96,0.12,0.04,-0.27
-0.07,0.38,-0.068985,1008.000183,0.008844,-0.183317,0.126724,49.2466239929,-123.2301788330,88.000000,LOCKED,11,0.96,0.11,0.04,-0.27
-0.06,0.43,-0.068985,1008.000183,-0.044676,0.029692,0.293040,49.2466239929,-123.2301788330,88.000000,LOCKED,11,0.95,0.11,0.04,-0.27
-0.05,0.45,-0.068985,1008.000183,0.108488,-0.266216,0.126699,49.2466239929,-123.2301788330,88.000000,LOCKED,11,0.96,0.10,0.05,-0.27
-0.04,0.47,-0.068985,1008.000183,0.057046,-0.123648,0.078026,49.2466239929,-123.2301788330,88.000000,LOCKED,11,0.96,0.10,0.05,-0.27
-0.04,0.45,-0.068985,1008.000183,-0.018127,-0.093034,-0.059323,49.2466239929,-123.2301788330,88.000000,LOCKED,11,0.96,0.09,0.05,-0.27
-0.03,0.43,-0.068985,1008.000183,0.042213,-0.225890,-0.094656,49.2466239929,-123.2301788330,88.000000,LOCKED,11,0.96,0.09,0.05,-0.27
-0.03,0.45,-0.113388,1008.005493,0.045672,-0.175152,0.088622,49.2466239929,-123.2301788330,88.000000,LOCKED,11,0.96,0.09,0.05,-0.28
-0.02,0.48,-0.113388,1008.005493,0.223462,-0.195100,0.210515,49.2466201782,-123.2301483154,88.900002,LOCKED,11,0.96,0.09,0.05,-0.27
-0.02,0.48,-0.153717,1008.010315,0.088558,-0.050536,0.049480,49.2466201782,-123.2301483154,88.900002,LOCKED,11,0.96,0.09,0.06,-0.27
-0.02,0.47,-0.153717,1008.010315,-0.069058,0.029939,0.021950,49.2466201782,-123.2301483154,88.900002,LOCKED,11,0.96,0.09,0.06,-0.27
-0.01,0.46,-0.107773,1008.004822,-0.072513,-0.080264,-0.055309,49.2466201782,-123.2301483154,88.900002,LOCKED,11,0.96,0.09,0.06,-0.27
-0.01,0.48,-0.107773,1008.004822,-0.087571,-0.091224,0.137682,49.2466201782,-123.2301483154,88.900002,LOCKED,11,0.96,0.09,0.05,-0.27
-0.00,0.51,-0.068985,1008.000183,0.067835,-0.168908,0.180993,49.2466201782,-123.2301483154,88.900002,LOCKED,11,0.96,0.10,0.05,-0.27
0.00,0.51,-0.068985,1008.000183,0.102045,-0.171114,0.021864,49.2466201782,-123.2301483154,88.900002,LOCKED,11,0.96,0.10,0.05,-0.27
0.01,0.49,-0.055710,1007.998535,0.043932,-0.096058,-0.069245,49.2466201782,-123.2301483154,88.900002,LOCKED,11,0.96,0.10,0.05,-0.27
0.01,0.48,-0.055710,1007.998535,-0.052370,0.046543,-0.018728,49.2466201782,-123.2301483154,88.900002,LOCKED,11,0.96,0.11,0.05,-0.27
0.02,0.48,-0.055710,1007.998535,-0.163114,-0.049711,0.006014,49.2466201782,-123.2301483154,88.900002,LOCKED,11,0.96,0.11,0.05,-0.26
0.02,0.51,-0.055710,1007.998535,-0.041348,-0.088289,0.208477,49.2466201782,-123.2301483154,88.900002,LOCKED,11,0.96,0.12,0.05,-0.26
0.03,0.56,-0.139420,1008.008606,0.114472,-0.182597,0.308442,49.2466201782,-123.2301483154,88.900002,LOCKED,11,0.96,0.12,0.05,-0.26
0.03,0.56,-0.139420,1008.008606,0.116111,-0.138681,0.050682,49.2466201782,-123.2301483154,88.900002,LOCKED,11,0.96,0.11,0.06,-0.26
0.03,0.51,-0.153717,1008.010315,-0.003440,-0.040221,-0.183344,49.2466201782,-123.2301483154,88.900002,LOCKED,11,0.96,0.11,0.06,-0.26
0.03,0.48,-0.153717,1008.010315,-0.045717,-0.063309,-0.144134,49.2466201782,-123.2301483154,88.900002,LOCKED,11,0.96,0.11,0.06,-0.25
0.03,0.47,-0.139420,1008.008606,-0.050781,-0.117633,0.021331,49.2466201782,-123.2301483154,88.900002,LOCKED,11,0.96,0.12,0.06,-0.25
0.03,0.49,-0.139420,1008.008606,0.017803,-0.201596,0.128485,49.2466201782,-123.2301483154,88.900002,LOCKED,11,0.96,0.13,0.06,-0.25
0.03,0.49,-0.246613,1008.021423,0.031358,-0.183254,0.138768,49.2466201782,-123.2301483154,88.900002,LOCKED,11,0.96,0.14,0.06,-0.25
0.03,0.49,-0.246613,1008.021423,0.022194,-0.079366,0.085762,49.2466201782,-123.2301483154,88.900002,LOCKED,11,0.95,0.15,0.07,-0.25
0.02,0.48,-0.272644,1008.024597,0.009547,-0.074905,0.018903,49.2466201782,-123.2301483154,88.900002,LOCKED,11,0.95,0.16,0.07,-0.26
0.02,0.50,-0.272644,1008.024597,0.132766,-0.198517,0.176115,49.2466201782,-123.2301483154,88.900002,LOCKED,11,0.95,0.16,0.08,-0.26
0.01,0.49,-0.299698,1008.027832,0.162794,-0.286285,0.092654,49.2466201782,-123.2301483154,88.900002,LOCKED,11,0.95,0.16,0.08,-0.26
0.01,0.50,-0.299698,1008.027832,0.093015,-0.145164,0.115822,49.2466201782,-123.2301483154,88.900002,LOCKED,11,0.95,0.16,0.08,-0.26
0.00,0.48,-0.268051,1008.024048,0.013038,-0.071981,-0.030406,49.2466201782,-123.2301483154,88.900002,LOCKED,11,0.95,0.16,0.09,-0.25
-0.00,0.44,-0.268051,1008.024048,-0.004527,-0.063055,-0.097161,49.2466201782,-123.2301483154,88.900002,LOCKED,11,0.95,0.16,0.10,-0.25
-0.00,0.44,-0.262939,1008.023438,-0.015056,-0.072479,0.044087,49.2466201782,-123.2301483154,88.900002,LOCKED,11,0.95,0.16,0.10,-0.26
-0.01,0.48,-0.262939,1008.023438,0.090793,-0.169261,0.298410,49.2466201782,-123.2301483154,88.900002,LOCKED,11,0.95,0.17,0.10,-0.26
-0.01,0.47,-0.334915,1008.032043,0.044358,-0.232182,0.059430,49.2466201782,-123.2301483154,88.900002,LOCKED,11,0.94,0.17,0.10,-0.26
-0.02,0.45,-0.334915,1008.032043,0.014356,-0.161916,0.013772,49.2466201782,-123.2301483154,88.900002,LOCKED,11,0.94,0.17,0.11,-0.26
-0.03,0.45,-0.361450,1008.035217,0.033835,-0.062640,0.073734,49.2466201782,-123.2301483154,88.900002,LOCKED,11,0.94,0.17,0.11,-0.26
-0.03,0.42,-0.361450,1008.035217,0.036926,-0.051075,-0.033675,49.2466201782,-123.2301483154,88.900002,LOCKED,11,0.94,0.17,0.11,-0.26
-0.04,0.41,-0.388504,1008.038452,0.037602,-0.058701,0.029248,49.2466201782,-123.2301483154,88.900002,LOCKED,11,0.94,0.17,0.11,-0.27
-0.05,0.41,-0.388504,1008.038452,-0.005584,-0.034616,0.130281,49.2466201782,-123.2301483154,88.900002,LOCKED,11,0.94,0.17,0.11,-0.27
-0.06,0.40,-0.388504,1008.038452,0.026697,-0.329614,0.036272,49.2466201782,-123.2301483154,88.900002,LOCKED,11,0.94,0.17,0.10,-0.27
-0.06,0.42,-0.388504,1008.038452,0.156711,-0.196230,0.203697,49.2466201782,-123.2301483154,88.900002,LOCKED,11,0.94,0.16,0.10,-0.27
-0.07,0.41,-0.374725,1008.036804,0.098036,-0.066599,0.052108,49.2466201782,-123.2301483154,88.900002,LOCKED,11,0.94,0.16,0.10,-0.27
-0.08,0.39,-0.374725,1008.036804,0.049862,-0.032059,0.007915,49.2466201782,-123.2301483154,88.900002,LOCKED,11,0.94,0.15,0.10,-0.28
-0.08,0.36,-0.334915,1008.032043,0.081032,-0.086935,-0.113852,49.2466201782,-123.2301483154,88.900002,LOCKED,11,0.94,0.14,0.10,-0.28
-0.09,0.30,-0.334915,1008.032043,0.020644,-0.076786,-0.259698,49.2466201782,-123.2301483154,88.900002,LOCKED,11,0.95,0.13,0.10,-0.28
-0.09,0.26,-0.366043,1008.035767,0.051851,-0.024666,-0.141725,49.2466201782,-123.2301483154,88.900002,LOCKED,11,0.95,0.12,0.09,-0.29
-0.10,0.23,-0.366043,1008.035767,0.059450,-0.085103,-0.052141,49.2466201782,-123.2301483154,88.900002,LOCKED,11,0.95,0.12,0.08,-0.29
-0.11,0.23,-0.312454,1008.029358,0.060236,-0.139600,0.029834,49.2466201782,-123.2301483154,88.900002,LOCKED,11,0.95,0.11,0.08,-0.29
-0.11,0.22,-0.312454,1008.029358,0.107209,-0.269864,0.047235,49.2466201782,-123.2301483154,88.900002,LOCKED,11,0.95,0.11,0.07,-0.29
-0.12,0.23,-0.285919,1008.026184,0.165816,-0.198852,0.111268,49.2466201782,-123.2301483154,88.900002,LOCKED,11,0.95,0.10,0.07,-0.30
-0.12,0.21,-0.285919,1008.026184,0.055035,-0.120842,-0.107606,49.2466201782,-123.2301483154,88.900002,LOCKED,11,0.95,0.10,0.08,-0.29
-0.12,0.20,-0.161362,1008.011230,0.009150,-0.073604,-0.023417,49.2466201782,-123.2301483154,88.900002,LOCKED,11,0.95,0.10,0.08,-0.29
-0.12,0.21,-0.161362,1008.011230,0.036595,-0.161668,0.057741,49.2466201782,-123.2301483154,88.900002,LOCKED,11,0.95,0.09,0.09,-0.30
-0.11,0.22,-0.095016,1008.003296,0.145647,-0.134116,0.068579,49.2466201782,-123.2301483154,88.900002,LOCKED,11,0.94,0.09,0.09,-0.30
-0.11,0.22,-0.095016,1008.003296,0.108940,-0.086551,-0.026303,49.2466201782,-123.2301483154,88.900002,LOCKED,11,0.94,0.09,0.10,-0.30
-0.10,0.21,-0.126144,1008.007019,0.093793,-0.004197,-0.039119,49.2466201782,-123.2301483154,88.900002,LOCKED,11,0.94,0.09,0.11,-0.30
-0.10,0.19,-0.126144,1008.007019,0.047074,-0.030396,-0.082487,49.2466201782,-123.2301483154,88.900002,LOCKED,11,0.94,0.09,0.13,-0.31
-0.10,0.20,-0.121552,1008.006470,0.039263,-0.115663,0.063783,49.2466201782,-123.2301483154,88.900002,LOCKED,11,0.94,0.09,0.13,-0.31
-0.10,0.18,-0.121552,1008.006470,0.042260,-0.081067,-0.101411,49.2466201782,-123.2301483154,88.900002,LOCKED,11,0.94,0.08,0.14,-0.31
-0.10,0.15,-0.135330,1008.008118,0.005909,-0.074994,-0.177029,49.2466201782,-123.2301483154,88.900002,LOCKED,11,0.94,0.07,0.14,-0.31
-0.09,0.12,-0.135330,1008.008118,-0.034734,-0.074142,-0.144764,49.2466201782,-123.2301483154,88.900002,LOCKED,11,0.94,0.06,0.14,-0.31
-0.09,0.12,-0.051117,1007.997986,0.015407,-0.079132,0.001836,49.2466201782,-123.2301483154,88.900002,LOCKED,11,0.94,0.06,0.14,-0.31
-0.09,0.11,-0.051117,1007.997986,-0.049735,-0.074187,-0.099700,49.2466201782,-123.2301483154,88.900002,LOCKED,11,0.94,0.06,0.13,-0.30
-0.09,0.08,-0.095016,1008.003296,-0.058385,0.029374,-0.165035,49.2466201782,-123.2301483154,88.900002,LOCKED,11,0.95,0.06,0.12,-0.30
-0.09,0.07,-0.095016,1008.003296,0.037337,0.000444,-0.059120,49.2466201782,-123.2301483154,88.900002,LOCKED,11,0.95,0.06,0.11,-0.30
-0.08,0.07,-0.095016,1008.003296,0.059357,-0.095228,0.004563,49.2466201782,-123.2301483154,88.900002,LOCKED,11,0.95,0.06,0.10,-0.30
-0.08,0.07,-0.095016,1008.003296,0.052431,-0.032484,0.039984,49.2466201782,-123.2301483154,88.900002,LOCKED,11,0.95,0.06,0.10,-0.30
-0.08,0.06,-0.121552,1008.006470,0.105931,-0.022766,-0.069803,49.2466201782,-123.2301483154,88.900002,LOCKED,11,0.95,0.06,0.09,-0.30
-0.08,0.04,-0.121552,1008.006470,0.021575,0.010364,-0.064927,49.2466201782,-123.2301483154,88.900002,LOCKED,11,0.95,0.07,0.09,-0.30
-0.09,0.01,-0.166977,1008.003296,-0.037643,-0.010768,-0.151177,49.2466201782,-123.2301483154,88.900002,LOCKED,11,0.95,0.07,0.08,-0.30
-0.09,0.01,-0.166977,1008.011902,0.053396,-0.022176,0.029854,49.2466201782,-123.2301483154,88.900002,LOCKED,11,0.95,0.07,0.07,-0.30
-0.09,0.03,-0.153717,1008.010315,0.029673,-0.069317,0.116812,49.2466201782,-123.2301483154,88.900002,LOCKED,11,0.95,0.08,0.06,-0.30
-0.10,0.04,-0.153717,1008.010315,0.157069,-0.108497,0.072665,49.2466201782,-123.2301483154,88.900002,LOCKED,11,0.95,0.08,0.05,-0.30
-0.10,0.05,-0.153717,1008.010315,0.107620,-0.028809,0.083419,49.2466201782,-123.2301483154,88.900002,LOCKED,11,0.95,0.08,0.05,-0.30
-0.10,0.06,-0.198120,1008.015625,0.060826,0.016106,0.099117,49.2466201782,-123.2301483154,88.900002,LOCKED,11,0.95,0.09,0.05,-0.29
-0.10,0.09,-0.198120,1008.015625,-0.020515,0.075954,0.170403,49.2466201782,-123.2301483154,88.900002,LOCKED,11,0.95,0.09,0.04,-0.29
-0.10,0.11,-0.072556,1008.000610,-0.062334,0.061248,0.085520,49.2466201782,-123.2301483154,88.900002,LOCKED,11,0.95,0.08,0.04,-0.29
-0.10,0.11,-0.072556,1008.000610,-0.017912,0.043757,0.022179,49.2466201782,-123.2301483154,88.900002,LOCKED,11,0.95,0.08,0.04,-0.29
-0.10,0.11,-0.131256,1008.007629,-0.031308,-0.065255,0.014033,49.2466201782,-123.2301483154,88.900002,LOCKED,11,0.95,0.08,0.04,-0.29
-0.10,0.13,-0.131256,1008.007629,0.007351,-0.178769,0.087171,49.2466201782,-123.2301483154,88.900002,LOCKED,11,0.95,0.07,0.04,-0.29
-0.10,0.15,-0.144531,1008.009216,0.015144,-0.198489,0.124889,49.2466201782,-123.2301483154,88.900002,LOCKED,11,0.95,0.07,0.05,-0.29
-0.10,0.20,-0.144531,1008.009216,0.095476,-0.008123,0.313995,49.2466201782,-123.2301483154,88.900002,LOCKED,11,0.95,0.07,0.05,-0.29
-0.09,0.21,-0.077652,1008.001221,0.028429,0.173831,0.060820,49.2466201782,-123.2301483154,88.900002,LOCKED,11,0.95,0.06,0.05,-0.29
-0.09,0.21,-0.077652,1008.001221,0.050751,-0.055878,0.016497,49.2466201782,-123.2301483154,88.900002,LOCKED,11,0.95,0.05,0.05,-0.29
-0.08,0.23,0.019836,1007.989502,0.042654,-0.268240,0.075314,49.2466201782,-123.2301483154,88.900002,LOCKED,11,0.95,0.03,0.04,-0.30
-0.07,0.25,0.019836,1007.989502,0.004812,-0.317507,0.073474,49.2466201782,-123.2301483154,88.900002,LOCKED,11,0.95,0.02,0.03,-0.30
-0.06,0.24,0.046371,1007.986328,0.004173,-0.247749,-0.086631,49.2466201782,-123.2301483154,88.900002,LOCKED,11,0.96,0.01,0.02,-0.29
-0.05,0.25,0.046371,1007.986328,0.021110,-0.007935,0.018655,49.2466201782,-123.2301483154,88.900002,LOCKED,11,0.96,0.01,0.02,-0.28
-0.04,0.23,0.032593,1007.987976,-0.093647,-0.006424,-0.112520,49.2466201782,-123.2301483154,88.900002,LOCKED,11,0.96,0.02,0.01,-0.28
-0.04,0.29,0.032593,1007.987976,0.072806,0.004129,0.275509,49.2466201782,-123.2301483154,88.900002,LOCKED,11,0.96,0.02,0.00,-0.28
GPS update failed, maybe no data in buffer? or wrong Pin connection (RX-TX)
-0.02,0.37,0.086197,1007.981567,0.287235,-0.248417,0.419049,49.2466201782,-123.2301483154,88.900002,LOCKED,11,0.96,0.02,-0.00,-0.27
-0.01,0.43,0.086197,1007.981567,0.021470,-0.054375,0.284311,49.2466201782,-123.2301483154,88.900002,LOCKED,11,0.96,0.02,-0.01,-0.26
-0.00,0.38,0.099457,1007.979980,-0.265433,0.228467,-0.301435,49.2466201782,-123.2301483154,88.900002,LOCKED,11,0.97,0.02,-0.01,-0.26
0.01,0.34,0.099457,1007.979980,-0.157596,0.248861,-0.235941,49.2466201782,-123.2301483154,88.900002,LOCKED,11,0.97,0.02,-0.01,-0.26
0.02,0.33,0.055054,1007.985291,0.098310,-0.290631,-0.042155,49.2466201782,-123.2301483154,88.900002,LOCKED,11,0.96,0.03,-0.02,-0.27
0.03,0.37,0.055054,1007.985291,0.143687,-0.372959,0.216559,49.2466201782,-123.2301483154,88.900002,LOCKED,11,0.96,0.03,-0.03,-0.26
0.03,0.38,0.067810,1007.983765,-0.078518,-0.090908,0.025734,49.2466201782,-123.2301483154,88.900002,LOCKED,11,0.97,0.04,-0.04,-0.26
0.04,0.37,0.067810,1007.983765,-0.174964,0.067372,-0.051642,49.2466201782,-123.2301483154,88.900002,LOCKED,11,0.96,0.04,-0.05,-0.26
0.05,0.39,0.095383,1007.980469,-0.004509,0.033650,0.054141,49.2466201782,-123.2301483154,88.900002,LOCKED,11,0.96,0.05,-0.06,-0.26
0.06,0.42,0.095383,1007.980469,0.032176,-0.258042,0.183343,49.2466201782,-123.2301483154,88.900002,LOCKED,11,0.96,0.07,-0.07,-0.27
0.07,0.45,0.152542,1007.973572,0.177172,-0.433053,0.160877,49.2466201782,-123.2301483154,88.900002,LOCKED,11,0.96,0.07,-0.07,-0.27
0.08,0.47,0.152542,1007.973572,0.031754,-0.169424,0.043560,49.2466201782,-123.2301483154,88.900002,LOCKED,11,0.96,0.07,-0.07,-0.26
0.10,0.46,0.264328,1007.960205,-0.009113,-0.006968,-0.101604,49.2466239929,-123.2301483154,88.900002,LOCKED,11,0.96,0.08,-0.07,-0.26
0.11,0.44,0.264328,1007.960205,-0.016472,-0.053500,-0.158089,49.2466239929,-123.2301483154,88.900002,LOCKED,11,0.96,0.08,-0.07,-0.26
0.13,0.42,0.277603,1007.958618,0.056854,-0.088598,-0.124540,49.2466239929,-123.2301483154,88.900002,LOCKED,11,0.96,0.09,-0.07,-0.26
0.14,0.41,0.277603,1007.958618,0.081469,-0.142776,-0.126665,49.2466239929,-123.2301483154,88.900002,LOCKED,11,0.96,0.11,-0.08,-0.26
0.15,0.40,0.237289,1007.963440,0.029274,-0.089409,-0.061058,49.2466239929,-123.2301483154,88.900002,LOCKED,11,0.95,0.12,-0.09,-0.27
0.16,0.42,0.237289,1007.963440,-0.073582,0.007961,0.048577,49.2466239929,-123.2301483154,88.900002,LOCKED,11,0.95,0.13,-0.10,-0.27
0.17,0.39,0.152542,1007.973572,0.001834,0.035717,-0.130378,49.2466239929,-123.2301483154,88.900002,LOCKED,11,0.94,0.14,-0.11,-0.28
0.18,0.37,0.152542,1007.973572,0.059569,0.039254,-0.121798,49.2466239929,-123.2301483154,88.900002,LOCKED,11,0.94,0.15,-0.12,-0.29
0.18,0.37,0.192871,1007.968750,0.140651,-0.125014,0.009276,49.2466239929,-123.2301483154,88.900002,LOCKED,11,0.93,0.17,-0.14,-0.30
0.19,0.37,0.192871,1007.968750,0.065586,-0.283297,-0.006007,49.2466239929,-123.2301483154,88.900002,LOCKED,11,0.92,0.17,-0.16,-0.30
0.20,0.42,0.237289,1007.963440,0.001500,-0.216445,0.247953,49.2466239929,-123.2301483154,88.900002,LOCKED,11,0.92,0.18,-0.18,-0.31
0.21,0.44,0.237289,1007.963440,0.010645,-0.193445,0.139313,49.2466239929,-123.2301483154,88.900002,LOCKED,11,0.91,0.17,-0.19,-0.32
0.22,0.42,0.294968,1007.956482,-0.095262,-0.023991,-0.171856,49.2466239929,-123.2301483154,88.900002,LOCKED,11,0.91,0.17,-0.20,-0.32
0.23,0.41,0.294968,1007.956482,0.039049,-0.164968,-0.065495,49.2466239929,-123.2301483154,88.900002,LOCKED,11,0.91,0.16,-0.20,-0.33
0.24,0.39,0.197464,1007.968201,0.009463,-0.192188,-0.098335,49.2466239929,-123.2301483154,88.900002,LOCKED,11,0.91,0.16,-0.20,-0.33
0.24,0.45,0.197464,1007.968201,-0.004184,-0.165973,0.339373,49.2466239929,-123.2301483154,88.900002,LOCKED,11,0.91,0.17,-0.19,-0.33
0.25,0.46,0.268417,1007.959717,0.040663,-0.099378,0.051241,49.2466239929,-123.2301483154,88.900002,LOCKED,11,0.91,0.17,-0.18,-0.33
0.26,0.49,0.268417,1007.959717,0.032470,-0.103207,0.210347,49.2466239929,-123.2301483154,88.900002,LOCKED,11,0.92,0.18,-0.16,-0.32
0.27,0.52,0.224014,1007.965027,0.041697,-0.209200,0.150563,49.2466239929,-123.2301483154,88.900002,LOCKED,11,0.92,0.17,-0.14,-0.32
0.27,0.54,0.224014,1007.965027,0.063011,-0.158527,0.137799,49.2466239929,-123.2301483154,88.900002,LOCKED,11,0.93,0.17,-0.12,-0.32
0.28,0.54,0.211243,1007.966553,-0.033822,-0.133716,0.001278,49.2466239929,-123.2301483154,88.900002,LOCKED,11,0.93,0.16,-0.10,-0.32
0.29,0.52,0.211243,1007.966553,-0.027442,-0.188000,-0.063880,49.2466239929,-123.2301483154,88.900002,LOCKED,11,0.93,0.15,-0.08,-0.32
0.29,0.50,0.157654,1007.972961,0.029342,-0.244476,-0.088638,49.2466239929,-123.2301483154,88.900002,LOCKED,11,0.94,0.14,-0.06,-0.32
0.29,0.46,0.157654,1007.972961,0.059574,-0.316105,-0.185569,49.2466239929,-123.2301483154,88.900002,LOCKED,11,0.94,0.14,-0.04,-0.32
0.29,0.41,0.176025,1007.970764,-0.085763,-0.287871,-0.225205,49.2466239929,-123.2301483154,89.500000,LOCKED,12,0.94,0.14,-0.03,-0.31
0.30,0.35,0.176025,1007.970764,-0.114226,-0.425483,-0.302847,49.2466239929,-123.2301483154,89.500000,LOCKED,12,0.94,0.13,-0.02,-0.31
0.30,0.33,0.148468,1007.974060,0.129934,-0.422950,-0.040310,49.2466239929,-123.2301483154,89.500000,LOCKED,12,0.94,0.13,-0.01,-0.31
0.30,0.31,0.148468,1007.974060,0.201151,-0.411401,-0.073990,49.2466239929,-123.2301483154,89.500000,LOCKED,12,0.94,0.13,-0.00,-0.30
0.29,0.27,0.095886,1007.980408,0.335922,-0.557505,-0.182775,49.2466239929,-123.2301483154,89.500000,LOCKED,12,0.95,0.13,0.00,-0.30
0.29,0.34,0.095886,1007.980408,0.152484,-0.351760,0.437021,49.2466239929,-123.2301483154,89.500000,LOCKED,12,0.95,0.14,0.02,-0.29
0.28,0.34,0.069351,1007.983582,0.224480,-0.290602,0.097669,49.2466239929,-123.2301483154,89.500000,LOCKED,12,0.95,0.13,0.03,-0.28
0.28,0.31,0.069351,1007.983582,0.013898,-0.167837,-0.077386,49.2466239929,-123.2301483154,89.500000,LOCKED,12,0.95,0.12,0.05,-0.27
0.27,0.29,-0.081741,1008.001709,0.055283,-0.023539,-0.011154,49.2466239929,-123.2301483154,89.500000,LOCKED,12,0.96,0.11,0.06,-0.26
0.26,0.31,-0.081741,1008.001709,0.139509,-0.119849,0.211105,49.2466239929,-123.2301483154,89.500000,LOCKED,12,0.96,0.11,0.06,-0.26
0.25,0.30,-0.107773,1008.004822,0.052792,-0.358291,0.054831,49.2466239929,-123.2301483154,89.500000,LOCKED,12,0.96,0.10,0.07,-0.25
0.24,0.28,-0.107773,1008.004822,-0.042063,-0.307408,-0.005207,49.2466239929,-123.2301483154,89.500000,LOCKED,12,0.96,0.09,0.07,-0.25
0.23,0.25,-0.081741,1008.001709,-0.002425,-0.239094,-0.051940,49.2466239929,-123.2301483154,89.500000,LOCKED,12,0.96,0.08,0.07,-0.24
0.22,0.24,-0.081741,1008.001709,0.063999,-0.237437,0.002400,49.2466239929,-123.2301483154,89.500000,LOCKED,12,0.96,0.08,0.07,-0.24
0.21,0.26,-0.041931,1007.996887,0.070078,-0.221959,0.201623,49.2466239929,-123.2301483154,89.500000,LOCKED,12,0.97,0.08,0.07,-0.24
0.21,0.28,-0.041931,1007.996887,0.134614,-0.263710,0.180167,49.2466239929,-123.2301483154,89.500000,LOCKED,12,0.97,0.07,0.07,-0.24
0.20,0.29,-0.028656,1007.995300,0.184837,-0.342892,0.131439,49.2466239929,-123.2301483154,89.500000,LOCKED,12,0.97,0.07,0.07,-0.24
0.20,0.30,-0.028656,1007.995300,0.172149,-0.214811,0.127214,49.2466239929,-123.2301483154,89.500000,LOCKED,12,0.97,0.06,0.07,-0.23
0.19,0.24,0.029526,1007.988342,-0.083559,0.005832,-0.232736,49.2466239929,-123.2301483154,89.500000,LOCKED,12,0.97,0.06,0.07,-0.23
0.19,0.25,0.029526,1007.988342,0.097520,-0.087830,0.062583,49.2466239929,-123.2301483154,89.500000,LOCKED,12,0.97,0.06,0.07,-0.23
0.19,0.26,0.056076,1007.985168,0.160000,-0.170916,0.132735,49.2466239929,-123.2301483154,89.500000,LOCKED,12,0.97,0.06,0.08,-0.22
0.19,0.26,0.056076,1007.985168,0.086156,-0.019004,0.005480,49.2466239929,-123.2301483154,89.500000,LOCKED,12,0.97,0.06,0.08,-0.22
0.19,0.25,0.029526,1007.988342,0.005403,0.088617,-0.008751,49.2466239929,-123.2301483154,89.500000,LOCKED,12,0.97,0.05,0.07,-0.21
0.18,0.27,0.029526,1007.988342,0.134450,0.015341,0.162223,49.2466239929,-123.2301483154,89.500000,LOCKED,12,0.97,0.05,0.07,-0.21
0.18,0.28,-0.015900,1007.993774,0.132914,-0.215772,0.168101,49.2466239929,-123.2301483154,89.500000,LOCKED,12,0.97,0.04,0.07,-0.21
0.18,0.28,-0.015900,1007.993774,0.124782,-0.296609,0.026827,49.2466239929,-123.2301483154,89.500000,LOCKED,12,0.98,0.04,0.07,-0.20
0.17,0.29,-0.028656,1007.995300,0.201192,-0.299007,0.126007,49.2466239929,-123.2301483154,89.500000,LOCKED,12,0.98,0.04,0.07,-0.20
0.17,0.28,-0.028656,1007.995300,0.162167,-0.286545,-0.010832,49.2466239929,-123.2301483154,89.500000,LOCKED,12,0.98,0.03,0.07,-0.19
0.17,0.23,0.029526,1007.988342,0.052747,-0.169039,-0.197079,49.2466239929,-123.2301483154,89.500000,LOCKED,12,0.98,0.03,0.07,-0.19
0.16,0.22,0.029526,1007.988342,0.181243,-0.250203,-0.030016,49.2466239929,-123.2301483154,89.500000,LOCKED,12,0.98,0.04,0.07,-0.18
0.16,0.23,0.056076,1007.985168,0.258739,-0.202832,0.076985,49.2466239929,-123.2301483154,89.500000,LOCKED,12,0.98,0.04,0.08,-0.18
0.16,0.22,0.056076,1007.985168,0.180910,-0.160021,-0.022970,49.2466239929,-123.2301483154,89.500000,LOCKED,12,0.98,0.04,0.08,-0.17
0.16,0.21,-0.028656,1007.995300,0.155482,-0.147130,0.025128,49.2466239929,-123.2301483154,89.500000,LOCKED,12,0.98,0.03,0.08,-0.16
0.15,0.21,-0.028656,1007.995300,0.174565,-0.221087,0.048848,49.2466239929,-123.2301483154,89.500000,LOCKED,12,0.98,0.03,0.08,-0.15
0.15,0.19,-0.041931,1007.996887,0.154826,-0.244035,-0.038016,49.2466239929,-123.2301483154,89.500000,LOCKED,12,0.99,0.03,0.08,-0.15
0.14,0.18,-0.041931,1007.996887,0.170897,-0.202545,0.012683,49.2466239929,-123.2301483154,89.500000,LOCKED,12,0.99,0.03,0.08,-0.14
0.14,0.18,-0.081741,1008.001709,0.174445,-0.166285,0.045063,49.2466278076,-123.2301483154,89.500000,LOCKED,12,0.99,0.03,0.08,-0.13
0.13,0.17,-0.081741,1008.001709,0.171086,-0.161602,0.021552,49.2466278076,-123.2301483154,89.500000,LOCKED,12,0.99,0.03,0.08,-0.13
0.12,0.16,-0.068985,1008.000183,0.141222,-0.093026,0.008151,49.2466278076,-123.2301483154,89.500000,LOCKED,12,0.99,0.03,0.08,-0.12
0.12,0.15,-0.068985,1008.000183,0.143685,-0.160730,0.002090,49.2466278076,-123.2301483154,89.500000,LOCKED,12,0.99,0.03,0.08,-0.11
