P_Pos, P_Vel, Altitude, Altitude_Baro, Pressure, Acc_X, Acc_Y, Acc_Z, Latitude, Longitude, Altitude_GPS, LOCK, Satellites
1.52,0.39,-0.003609,-0.003609,1015.862915,-0.010874,0.041741,0.028178,49.247681,-123.230621,70.099998,LOCKED,5
1.52,0.39,-0.003609,-0.003609,1015.862915,-0.023887,0.064246,0.021047,49.247681,-123.230621,70.099998,LOCKED,5
1.52,0.39,-0.035065,-0.035065,1015.866699,-0.009486,0.030535,0.008013,49.247681,-123.230621,70.099998,LOCKED,5
1.52,0.39,-0.035065,-0.035065,1015.866699,-0.011842,0.031414,-0.009263,49.247681,-123.230621,70.099998,LOCKED,5
1.52,0.38,-0.061440,-0.061440,1015.869934,-0.021438,0.037278,-0.011607,49.247681,-123.230621,70.099998,LOCKED,5
1.52,0.38,-0.061440,-0.061440,1015.869934,-0.021605,0.028947,-0.012182,49.247681,-123.230621,70.099998,LOCKED,5
1.52,0.38,-0.159332,-0.159332,1015.881714,-0.012236,0.029975,-0.011111,49.247681,-123.230621,70.099998,LOCKED,5
1.52,0.38,-0.159332,-0.159332,1015.881714,-0.011760,0.040062,0.006025,49.247681,-123.230621,70.099998,LOCKED,5
1.52,0.38,-0.119263,-0.119263,1015.876892,-0.018928,0.047003,0.018528,49.247681,-123.230621,70.099998,LOCKED,5
1.52,0.38,-0.119263,-0.119263,1015.876892,-0.023928,0.043016,0.012199,49.247681,-123.230621,70.099998,LOCKED,5
1.52,0.38,-0.022377,-0.022377,1015.865173,-0.027745,0.028737,-0.008905,49.247681,-123.230621,70.099998,LOCKED,5
1.52,0.38,-0.022377,-0.022377,1015.865173,-0.022072,0.024199,-0.025570,49.247681,-123.230621,70.099998,LOCKED,5
1.52,0.37,-0.008179,-0.008179,1015.863464,-0.010832,0.030220,-0.010260,49.247681,-123.230621,70.099998,LOCKED,5
1.52,0.37,-0.008179,-0.008179,1015.863464,-0.007769,0.033230,0.001928,49.247681,-123.230621,70.099998,LOCKED,5
1.52,0.37,-0.078682,-0.078682,1015.872009,-0.004861,0.026366,0.005253,49.247681,-123.230621,70.099998,LOCKED,5
1.52,0.37,-0.078682,-0.078682,1015.872009,-0.011604,0.027771,0.004515,49.247681,-123.230621,70.099998,LOCKED,5
1.52,0.37,-0.008179,-0.008179,1015.863464,-0.007674,0.033569,0.000864,49.247681,-123.230621,70.099998,LOCKED,5
1.52,0.37,-0.008179,-0.008179,1015.863464,-0.021115,0.031442,-0.000750,49.247681,-123.230621,70.099998,LOCKED,5
1.52,0.37,-0.119263,-0.119263,1015.876892,-0.016323,0.032699,-0.007913,49.247681,-123.230621,70.099998,LOCKED,5
1.52,0.37,-0.119263,-0.119263,1015.876892,-0.017984,0.031450,0.001562,49.247681,-123.230621,70.099998,LOCKED,5
1.52,0.37,-0.119263,-0.119263,1015.876892,-0.011476,0.037840,0.011901,49.247681,-123.230621,67.599998,LOCKED,5
1.52,0.37,-0.119263,-0.119263,1015.876892,-0.010253,0.029815,0.021172,49.247681,-123.230621,67.599998,LOCKED,5
1.52,0.38,-0.035065,-0.035065,1015.866699,-0.008600,0.029586,0.015253,49.247681,-123.230621,67.599998,LOCKED,5
1.52,0.38,-0.035065,-0.035065,1015.866699,-0.009821,0.026945,0.003753,49.247681,-123.230621,67.599998,LOCKED,5
1.53,0.37,-0.035065,-0.035065,1015.866699,-0.017890,0.036450,-0.011132,49.247681,-123.230621,67.599998,LOCKED,5
1.53,0.37,-0.035065,-0.035065,1015.866699,-0.020879,0.037394,-0.013386,49.247681,-123.230621,67.599998,LOCKED,5
1.53,0.37,-0.022377,-0.022377,1015.865173,-0.013115,0.030167,-0.007781,49.247681,-123.230621,67.599998,LOCKED,5
1.53,0.37,-0.022377,-0.022377,1015.865173,-0.012719,0.030780,-0.000479,49.247681,-123.230621,67.599998,LOCKED,5
1.53,0.37,-0.035065,-0.035065,1015.866699,-0.016850,0.032989,0.009067,49.247681,-123.230621,67.599998,LOCKED,5
1.53,0.37,-0.035065,-0.035065,1015.866699,-0.021895,0.045310,0.014064,49.247681,-123.230621,67.599998,LOCKED,5
1.53,0.37,-0.047745,-0.047745,1015.868286,-0.024152,0.041760,0.011264,49.247681,-123.230621,67.599998,LOCKED,5
1.53,0.37,-0.047745,-0.047745,1015.868286,-0.022426,0.043998,0.004226,49.247681,-123.230621,67.599998,LOCKED,5
1.53,0.37,-0.075134,-0.075134,1015.871582,-0.017184,0.040220,-0.002154,49.247681,-123.230621,67.599998,LOCKED,5
1.53,0.37,-0.075134,-0.075134,1015.871582,-0.013943,0.032584,-0.009927,49.247681,-123.230621,67.599998,LOCKED,5
1.53,0.37,-0.114700,-0.114700,1015.876343,-0.015773,0.029936,-0.001197,49.247681,-123.230621,67.599998,LOCKED,5
1.53,0.37,-0.114700,-0.114700,1015.876343,-0.013252,0.030799,0.011006,49.247681,-123.230621,67.599998,LOCKED,5
1.53,0.37,-0.114700,-0.114700,1015.876343,-0.007345,0.028039,0.012178,49.247681,-123.230621,67.599998,LOCKED,5
1.53,0.37,-0.114700,-0.114700,1015.876343,-0.009832,0.025555,0.016583,49.247681,-123.230621,67.599998,LOCKED,5
1.53,0.37,-0.141075,-0.141075,1015.879517,-0.010972,0.029943,0.011780,49.247681,-123.230621,67.599998,LOCKED,5
1.53,0.37,-0.141075,-0.141075,1015.879517,-0.019175,0.039551,0.008276,49.247681,-123.230621,67.599998,LOCKED,5
1.53,0.37,-0.069557,-0.069557,1015.870911,-0.021135,0.043794,0.005108,49.247681,-123.230621,67.599998,LOCKED,5
1.53,0.37,-0.069557,-0.069557,1015.870911,-0.024713,0.045336,0.007978,49.247681,-123.230621,67.599998,LOCKED,5
1.53,0.37,-0.043175,-0.043175,1015.867737,-0.022531,0.043102,0.002668,49.247681,-123.230621,67.599998,LOCKED,5
1.53,0.37,-0.043175,-0.043175,1015.867737,-0.014051,0.030620,0.001087,49.247681,-123.230621,67.599998,LOCKED,5
1.53,0.37,-0.003609,-0.003609,1015.862915,-0.004706,0.028126,0.003056,49.247681,-123.230621,67.599998,LOCKED,5
1.53,0.37,-0.003609,-0.003609,1015.862915,-0.003683,0.023189,0.014009,49.247681,-123.230621,67.599998,LOCKED,5
1.53,0.38,0.071457,0.071457,1015.853882,-0.010148,0.029420,0.014809,49.247681,-123.230621,67.599998,LOCKED,5
1.53,0.38,0.071457,0.071457,1015.853882,-0.024645,0.041539,0.005816,49.247681,-123.230621,67.599998,LOCKED,5
1.53,0.38,0.035950,0.035950,1015.858154,-0.021892,0.053713,0.001945,49.247681,-123.230621,67.599998,LOCKED,5
1.53,0.38,0.035950,0.035950,1015.858154,-0.027001,0.056386,0.008085,49.247681,-123.230621,67.599998,LOCKED,5
1.53,0.38,-0.022377,-0.022377,1015.865173,-0.020412,0.053269,0.017896,49.247681,-123.230621,67.599998,LOCKED,5
1.53,0.38,-0.022377,-0.022377,1015.865173,-0.015606,0.049859,0.020573,49.247681,-123.230621,67.599998,LOCKED,5
1.53,0.39,-0.008179,-0.008179,1015.863464,-0.010195,0.045151,0.029580,49.247681,-123.230621,67.599998,LOCKED,5
1.53,0.39,-0.008179,-0.008179,1015.863464,-0.004540,0.026786,0.014360,49.247681,-123.230621,67.599998,LOCKED,5
1.53,0.39,0.018196,0.018196,1015.860291,-0.010445,0.022968,0.002987,49.247681,-123.230621,67.599998,LOCKED,5
1.54,0.39,0.018196,0.018196,1015.860291,-0.011780,0.040514,-0.010662,49.247681,-123.230621,67.599998,LOCKED,5
1.54,0.39,0.018196,0.018196,1015.860291,-0.002100,0.077290,0.006159,49.247681,-123.230621,67.599998,LOCKED,5
1.54,0.39,0.058273,0.058273,1015.855469,-0.010658,0.047555,0.030387,49.247681,-123.230621,67.599998,LOCKED,5
1.54,0.40,0.058273,0.058273,1015.855469,0.001247,0.041577,0.033310,49.247681,-123.230621,67.599998,LOCKED,5
1.54,0.40,0.018196,0.018196,1015.860291,0.009495,0.028934,0.031392,49.247681,-123.230621,67.599998,LOCKED,5
1.54,0.40,0.018196,0.018196,1015.860291,0.009984,0.019614,0.015045,49.247681,-123.230621,67.599998,LOCKED,5
1.54,0.40,-0.008179,-0.008179,1015.863464,0.015223,0.050297,-0.010658,49.247681,-123.230621,67.599998,LOCKED,5
1.54,0.40,-0.008179,-0.008179,1015.863464,-0.008858,0.046056,0.003964,49.247681,-123.230621,67.599998,LOCKED,5
1.54,0.41,-0.022377,-0.022377,1015.865173,-0.018533,0.057274,0.029407,49.247681,-123.230621,67.599998,LOCKED,5
1.54,0.41,-0.022377,-0.022377,1015.865173,-0.016201,0.027924,0.030022,49.247681,-123.230621,67.599998,LOCKED,5
1.55,0.42,-0.008179,-0.008179,1015.863464,-0.114484,0.041135,0.046867,49.247681,-123.230621,67.599998,LOCKED,5
1.55,0.43,-0.008179,-0.008179,1015.863464,-0.039885,0.019277,0.048537,49.247681,-123.230621,67.599998,LOCKED,5
1.55,0.43,-0.093391,-0.093391,1015.873779,-0.026184,0.034348,0.040106,49.247681,-123.230621,67.599998,LOCKED,5
1.55,0.45,-0.093391,-0.093391,1015.873779,-0.022410,0.020666,0.087270,49.247681,-123.230621,67.599998,LOCKED,5
1.55,0.48,-0.106071,-0.106071,1015.875305,-0.011513,0.112631,0.178859,49.247681,-123.230621,67.599998,LOCKED,5
1.55,0.51,-0.106071,-0.106071,1015.875305,-0.025194,0.109933,0.187961,49.247681,-123.230621,67.599998,LOCKED,5
1.55,0.53,-0.106071,-0.106071,1015.875305,-0.047266,0.091207,0.119079,49.247681,-123.230621,67.599998,LOCKED,5
1.56,0.55,-0.106071,-0.106071,1015.875305,-0.054900,0.067470,0.089402,49.247681,-123.230621,67.599998,LOCKED,5
1.56,0.56,-0.131943,-0.131943,1015.878418,-0.066553,0.051417,0.059942,49.247681,-123.230621,67.599998,LOCKED,5
1.56,0.56,-0.131943,-0.131943,1015.878418,-0.066220,0.070439,0.033784,49.247681,-123.230621,67.599998,LOCKED,5
1.57,0.57,-0.119263,-0.119263,1015.876892,-0.083393,0.092456,0.057001,49.247681,-123.230621,67.599998,LOCKED,5
1.57,0.58,-0.119263,-0.119263,1015.876892,-0.072735,0.058867,0.079597,49.247681,-123.230621,67.599998,LOCKED,5
1.57,0.59,-0.078682,-0.078682,1015.872009,-0.072839,0.046084,0.061066,49.247681,-123.230621,67.599998,LOCKED,5
1.58,0.59,-0.078682,-0.078682,1015.872009,-0.096264,0.083925,-0.000886,49.247681,-123.230621,67.599998,LOCKED,5
1.58,0.58,-0.119263,-0.119263,1015.876892,-0.099776,0.114264,-0.041045,49.247681,-123.230621,67.599998,LOCKED,5
1.59,0.58,-0.119263,-0.119263,1015.876892,-0.060926,0.110351,-0.035254,49.247681,-123.230621,67.599998,LOCKED,5
1.59,0.57,-0.131943,-0.131943,1015.878418,-0.027776,0.048958,-0.012495,49.247681,-123.230621,67.599998,LOCKED,5
1.59,0.56,-0.131943,-0.131943,1015.878418,-0.039936,0.039789,-0.051998,49.247681,-123.230621,67.599998,LOCKED,5
1.60,0.55,-0.146149,-0.146149,1015.880127,-0.043066,0.054998,-0.083698,49.247681,-123.230621,67.599998,LOCKED,5
1.60,0.53,-0.146149,-0.146149,1015.880127,-0.046032,0.053945,-0.116429,49.247681,-123.230621,67.599998,LOCKED,5
1.60,0.51,-0.075134,-0.075134,1015.871582,-0.048945,0.052249,-0.105792,49.247681,-123.230621,67.599998,LOCKED,5
1.60,0.50,-0.075134,-0.075134,1015.871582,-0.031719,0.064874,-0.023897,49.247681,-123.230621,67.599998,LOCKED,5
1.60,0.51,-0.159332,-0.159332,1015.881714,-0.023055,0.015314,0.022472,49.247681,-123.230621,67.599998,LOCKED,5
1.61,0.51,-0.159332,-0.159332,1015.881714,-0.005917,-0.001393,0.018673,49.247681,-123.230621,67.599998,LOCKED,5
1.61,0.50,-0.172523,-0.172523,1015.883301,-0.045544,0.025240,-0.030792,49.247681,-123.230621,67.599998,LOCKED,5
1.61,0.50,-0.172523,-0.172523,1015.883301,-0.093673,0.068873,-0.030047,49.247681,-123.230621,67.599998,LOCKED,5
1.61,0.49,-0.061440,-0.061440,1015.869934,-0.090524,0.060213,-0.046580,49.247681,-123.230621,67.599998,LOCKED,5
1.61,0.47,-0.061440,-0.061440,1015.869934,-0.091202,0.007557,-0.081460,49.247681,-123.230621,67.599998,LOCKED,5
1.62,0.45,-0.093391,-0.093391,1015.873779,-0.066254,-0.007689,-0.088033,49.247681,-123.230621,67.599998,LOCKED,5
1.62,0.45,-0.093391,-0.093391,1015.873779,-0.069265,0.056155,-0.020485,49.247681,-123.230621,67.599998,LOCKED,5
1.62,0.45,-0.061440,-0.061440,1015.869934,-0.043283,0.053502,0.016872,49.247681,-123.230621,67.599998,LOCKED,5
1.62,0.46,-0.061440,-0.061440,1015.869934,-0.013224,0.016635,0.052578,49.247681,-123.230621,67.599998,LOCKED,5
1.62,0.47,-0.101006,-0.101006,1015.874695,0.037047,-0.027123,0.061380,49.247681,-123.230621,67.599998,LOCKED,5
1.62,0.48,-0.101006,-0.101006,1015.874695,0.066535,-0.026323,0.031541,49.247681,-123.230621,67.599998,LOCKED,5
1.62,0.47,-0.101006,-0.101006,1015.874695,0.033535,0.003436,-0.009247,49.247681,-123.230621,67.599998,LOCKED,5
1.63,0.46,-0.101006,-0.101006,1015.874695,-0.006218,0.006486,-0.051727,49.247681,-123.230621,67.599998,LOCKED,5
1.63,0.45,-0.087814,-0.087814,1015.873108,-0.022647,0.001116,-0.084436,49.247681,-123.230621,67.599998,LOCKED,5
1.63,0.44,-0.087814,-0.087814,1015.873108,0.013879,-0.030321,-0.059449,49.247681,-123.230621,67.599998,LOCKED,5
1.63,0.43,-0.043175,-0.043175,1015.867737,0.036722,-0.058630,-0.033709,49.247681,-123.230621,67.599998,LOCKED,5
1.63,0.42,-0.043175,-0.043175,1015.867737,-0.003278,-0.021785,-0.067122,49.247681,-123.230621,67.599998,LOCKED,5
1.63,0.40,0.030884,0.030884,1015.858765,-0.062534,0.047359,-0.109049,49.247681,-123.230621,67.599998,LOCKED,5
1.63,0.38,0.030884,0.030884,1015.858765,-0.064802,0.038241,-0.107837,49.247681,-123.230621,67.599998,LOCKED,5
1.63,0.36,-0.003609,-0.003609,1015.862915,-0.021504,0.014503,-0.085060,49.247681,-123.230621,67.599998,LOCKED,5
1.63,0.35,-0.003609,-0.003609,1015.862915,0.030814,-0.089242,-0.045661,49.247681,-123.230621,67.599998,LOCKED,5
1.63,0.35,0.084145,0.084145,1015.852356,0.032771,-0.095836,-0.022808,49.247681,-123.230621,67.599998,LOCKED,5
1.63,0.35,0.084145,0.084145,1015.852356,0.046320,-0.083278,0.021015,49.247681,-123.230621,67.599998,LOCKED,5
1.63,0.36,0.097328,0.097328,1015.850769,0.012280,-0.045201,0.054362,49.247681,-123.230621,67.599998,LOCKED,5
1.63,0.37,0.097328,0.097328,1015.850769,-0.022199,-0.007154,0.049881,49.247681,-123.230621,67.599998,LOCKED,5
1.63,0.36,0.111023,0.111023,1015.849121,-0.058931,0.021604,-0.046112,49.247681,-123.230621,67.599998,LOCKED,5
1.63,0.34,0.111023,0.111023,1015.849121,-0.049680,0.037372,-0.109696,49.247681,-123.230621,67.599998,LOCKED,5
1.63,0.32,0.181534,0.181534,1015.840576,0.008353,0.002695,-0.076753,49.247681,-123.230621,67.599998,LOCKED,5
1.63,0.32,0.181534,0.181534,1015.840576,0.068289,-0.045313,-0.005780,49.247681,-123.230621,67.599998,LOCKED,5
1.63,0.34,0.097328,0.097328,1015.850769,0.096953,-0.082766,0.087646,49.247681,-123.230621,67.599998,LOCKED,5
1.63,0.36,0.097328,0.097328,1015.850769,0.127372,-0.067314,0.130930,49.247681,-123.230621,67.599998,LOCKED,5
1.63,0.39,0.044067,0.044067,1015.857178,0.133867,-0.055527,0.156981,49.247681,-123.230621,67.599998,LOCKED,5
1.63,0.42,0.044067,0.044067,1015.857178,0.173808,-0.106881,0.162577,49.247681,-123.230621,67.599998,LOCKED,5
1.63,0.44,0.018196,0.018196,1015.860291,0.114316,-0.153875,0.156332,49.247681,-123.230621,67.599998,LOCKED,5
1.63,0.45,0.018196,0.018196,1015.860291,0.113702,-0.088982,0.063450,49.247681,-123.230621,67.599998,LOCKED,5
1.64,0.46,0.089211,0.089211,1015.851746,0.092810,-0.042463,0.023750,49.247681,-123.230621,67.599998,LOCKED,5
1.64,0.46,0.089211,0.089211,1015.851746,0.097513,-0.073132,0.011013,49.247681,-123.230621,67.599998,LOCKED,5
1.64,0.45,0.107475,0.107475,1015.849548,0.078798,-0.016840,-0.039175,49.247681,-123.230621,67.599998,LOCKED,5
1.64,0.44,0.107475,0.107475,1015.849548,-0.000337,0.074210,-0.062745,49.247681,-123.230621,67.599998,LOCKED,5
1.64,0.42,0.164795,0.164795,1015.842590,0.001896,0.138423,-0.089377,49.247681,-123.230621,67.599998,LOCKED,5
1.64,0.40,0.164795,0.164795,1015.842590,0.032340,0.133647,-0.099737,49.247681,-123.230621,67.599998,LOCKED,5
1.65,0.37,0.151100,0.151100,1015.844238,0.075215,0.113705,-0.163915,49.247681,-123.230621,67.599998,LOCKED,5
1.65,0.34,0.151100,0.151100,1015.844238,0.072891,0.108645,-0.159351,49.247681,-123.230621,67.599998,LOCKED,5
1.65,0.31,0.054214,0.054214,1015.855957,0.122975,0.046361,-0.172136,49.247681,-123.230621,67.599998,LOCKED,5
1.64,0.29,0.054214,0.054214,1015.855957,0.086929,-0.072117,-0.130984,49.247681,-123.230621,67.599998,LOCKED,5
1.64,0.27,-0.031509,-0.031509,1015.855957,0.061830,-0.051645,-0.090815,49.247681,-123.230621,67.599998,LOCKED,5
1.64,0.27,-0.031509,-0.031509,1015.866272,0.052260,0.050306,0.016487,49.247681,-123.230621,67.599998,LOCKED,5
1.64,0.28,-0.069557,-0.069557,1015.866272,0.067612,0.038624,0.049228,49.247681,-123.230621,67.599998,LOCKED,5
1.64,0.29,-0.069557,-0.069557,1015.870911,0.077369,0.009800,0.035794,49.247681,-123.230621,67.599998,LOCKED,5
1.63,0.29,-0.069557,-0.069557,1015.870911,0.041871,0.013435,0.020831,49.247681,-123.230621,67.599998,LOCKED,5
1.63,0.31,-0.069557,-0.069557,1015.870911,-0.052065,0.088083,0.099773,49.247681,-123.230621,67.599998,LOCKED,5
1.63,0.34,-0.069557,-0.069557,1015.870911,-0.086306,0.062114,0.180154,49.247681,-123.230621,67.599998,LOCKED,5
1.63,0.38,-0.012741,-0.012741,1015.864014,-0.100251,0.060147,0.241114,49.247681,-123.230621,67.599998,LOCKED,5
1.63,0.43,-0.012741,-0.012741,1015.864014,-0.052468,0.039762,0.259269,49.247681,-123.230621,67.599998,LOCKED,5
1.63,0.44,0.072472,0.072472,1015.853760,0.011928,-0.085595,0.076579,49.247681,-123.230621,67.599998,LOCKED,5
1.64,0.43,0.072472,0.072472,1015.853760,0.002114,-0.075011,-0.053586,49.247681,-123.230621,67.599998,LOCKED,5
1.64,0.42,-0.038612,-0.038612,1015.867188,-0.097365,-0.034829,-0.043926,49.247681,-123.230621,67.599998,LOCKED,5
1.64,0.41,-0.038612,-0.038612,1015.867188,-0.138124,0.004885,-0.055808,49.247681,-123.230621,67.599998,LOCKED,5
1.64,0.41,0.005516,0.005516,1015.861816,-0.107218,0.030669,-0.001197,49.247681,-123.230621,67.599998,LOCKED,5
1.64,0.41,0.005516,0.005516,1015.861816,-0.073438,0.091331,-0.006564,49.247681,-123.230621,67.599998,LOCKED,5
1.64,0.38,0.019211,0.019211,1015.860168,-0.023349,0.074573,-0.151068,49.247681,-123.230621,67.599998,LOCKED,5
1.64,0.34,0.019211,0.019211,1015.860168,-0.100295,0.128710,-0.212463,49.247681,-123.230621,67.599998,LOCKED,5
1.64,0.30,0.005516,0.005516,1015.861816,-0.051792,0.136612,-0.214728,49.247681,-123.230621,67.599998,LOCKED,5
1.64,0.29,0.005516,0.005516,1015.861816,-0.061144,0.103871,-0.044778,49.247681,-123.230621,67.599998,LOCKED,5
1.63,0.32,0.019211,0.019211,1015.860168,-0.062257,0.041597,0.141358,49.247688,-123.230606,67.599998,LOCKED,5
1.63,0.34,0.019211,0.019211,1015.860168,0.022432,0.027041,0.156680,49.247688,-123.230606,67.599998,LOCKED,5
1.63,0.37,-0.007164,-0.007164,1015.863342,0.011578,0.040313,0.158306,49.247688,-123.230606,67.599998,LOCKED,5
1.63,0.37,-0.007164,-0.007164,1015.863342,0.010958,0.043642,-0.010176,49.247688,-123.230606,67.599998,LOCKED,5
1.63,0.34,-0.099480,-0.099480,1015.874512,0.045367,0.068929,-0.158210,49.247688,-123.230606,67.599998,LOCKED,5
1.63,0.30,-0.099480,-0.099480,1015.874512,0.055746,0.001057,-0.203994,49.247688,-123.230606,67.599998,LOCKED,5
1.63,0.29,-0.068542,-0.068542,1015.870789,0.073143,-0.043235,-0.085041,49.247688,-123.230606,67.599998,LOCKED,5
1.63,0.30,-0.068542,-0.068542,1015.870789,0.094141,-0.001774,0.062434,49.247688,-123.230606,67.599998,LOCKED,5
1.63,0.32,-0.060928,-0.060928,1015.869873,0.071319,0.027112,0.107006,49.247688,-123.230606,67.599998,LOCKED,5
1.63,0.32,-0.060928,-0.060928,1015.869873,-0.004617,0.031963,0.055296,49.247688,-123.230606,67.599998,LOCKED,5
1.62,0.33,-0.087814,-0.087814,1015.873108,-0.054197,0.053111,0.010588,49.247688,-123.230606,67.599998,LOCKED,5
1.62,0.33,-0.087814,-0.087814,1015.873108,-0.013112,0.047264,0.013297,49.247688,-123.230606,67.599998,LOCKED,5
1.62,0.34,-0.029991,-0.029991,1015.866089,0.012842,0.063070,0.054240,49.247688,-123.230606,67.599998,LOCKED,5
1.62,0.36,-0.029991,-0.029991,1015.866089,-0.015668,0.064261,0.114427,49.247688,-123.230606,67.599998,LOCKED,5
1.62,0.38,-0.082741,-0.082741,1015.872498,0.016069,0.033469,0.126884,49.247688,-123.230606,67.599998,LOCKED,5
1.62,0.40,-0.082741,-0.082741,1015.872498,0.019920,-0.002589,0.116386,49.247688,-123.230606,67.599998,LOCKED,5
1.62,0.40,-0.136002,-0.136002,1015.878906,0.039654,-0.022533,0.027250,49.247688,-123.230606,67.599998,LOCKED,5
1.62,0.39,-0.136002,-0.136002,1015.878906,0.004544,-0.037354,-0.046445,49.247688,-123.230606,67.599998,LOCKED,5
1.62,0.38,-0.136002,-0.136002,1015.878906,-0.039901,-0.015065,-0.052790,49.247688,-123.230606,67.599998,LOCKED,5
1.62,0.38,-0.136002,-0.136002,1015.878906,-0.018607,0.008172,-0.023193,49.247688,-123.230606,67.599998,LOCKED,5
1.62,0.38,-0.077667,-0.077667,1015.871887,0.006322,0.011072,0.025870,49.247688,-123.230606,67.599998,LOCKED,5
1.62,0.37,-0.077667,-0.077667,1015.871887,0.037184,0.007302,-0.032446,49.247688,-123.230606,67.599998,LOCKED,5
1.62,0.36,-0.090347,-0.090347,1015.873413,0.004730,0.015569,-0.079760,49.247688,-123.230606,67.599998,LOCKED,5
1.62,0.36,-0.090347,-0.090347,1015.873413,-0.033719,0.040363,-0.018019,49.247688,-123.230606,67.599998,LOCKED,5
1.62,0.36,-0.064484,-0.064484,1015.870300,-0.031322,0.064994,0.049068,49.247688,-123.230606,67.599998,LOCKED,5
1.62,0.38,-0.064484,-0.064484,1015.870300,-0.012888,0.066766,0.087105,49.247688,-123.230606,67.599998,LOCKED,5
1.62,0.38,-0.006653,-0.006653,1015.863281,-0.004817,0.005481,0.032931,49.247688,-123.230606,67.599998,LOCKED,5
1.62,0.38,-0.006653,-0.006653,1015.863281,0.053602,0.016629,-0.006981,49.247688,-123.230606,67.599998,LOCKED,5
1.62,0.38,-0.020348,-0.020348,1015.864929,0.030183,0.056153,0.015421,49.247688,-123.230606,67.599998,LOCKED,5
1.62,0.39,-0.020348,-0.020348,1015.864929,-0.022249,0.100934,0.036920,49.247688,-123.230606,67.599998,LOCKED,5
1.62,0.40,-0.073105,-0.073105,1015.871338,-0.016483,0.105477,0.058062,49.247688,-123.230606,67.599998,LOCKED,5
1.62,0.41,-0.073105,-0.073105,1015.871338,0.001304,0.076397,0.041872,49.247688,-123.230606,67.599998,LOCKED,5
1.62,0.40,-0.041145,-0.041145,1015.867493,0.023834,0.065856,0.003260,49.247688,-123.230606,67.599998,LOCKED,5
1.62,0.40,-0.041145,-0.041145,1015.867493,0.050494,0.018948,-0.019226,49.247688,-123.230606,67.599998,LOCKED,5
1.62,0.40,0.042549,0.042549,1015.857361,0.038035,0.019936,0.000356,49.247688,-123.230606,67.599998,LOCKED,5
1.62,0.41,0.042549,0.042549,1015.857361,0.006916,-0.003400,0.035624,49.247688,-123.230606,67.599998,LOCKED,5
1.62,0.42,0.042549,0.042549,1015.857361,0.033958,0.003946,0.091756,49.247696,-123.230614,67.599998,LOCKED,5
1.63,0.45,0.042549,0.042549,1015.857361,0.033423,0.031815,0.154742,49.247696,-123.230614,67.599998,LOCKED,5
1.63,0.47,0.056244,0.056244,1015.855713,0.060490,-0.003108,0.099936,49.247696,-123.230614,67.599998,LOCKED,5
1.63,0.47,0.056244,0.056244,1015.855713,0.024169,-0.021404,0.005278,49.247696,-123.230614,67.599998,LOCKED,5
1.63,0.46,0.118126,0.118126,1015.848267,0.003208,0.016186,-0.006232,49.247696,-123.230614,67.599998,LOCKED,5
1.63,0.46,0.118126,0.118126,1015.848267,-0.018359,0.011459,-0.013662,49.247696,-123.230614,67.599998,LOCKED,5
1.64,0.46,0.135376,0.135376,1015.846191,-0.020341,0.033999,-0.015028,49.247696,-123.230614,67.599998,LOCKED,5
1.64,0.45,0.135376,0.135376,1015.846191,-0.017073,0.062922,-0.019666,49.247696,-123.230614,67.599998,LOCKED,5
1.64,0.45,0.161751,0.161751,1015.842957,-0.011476,0.028454,-0.031907,49.247696,-123.230614,67.599998,LOCKED,5
1.64,0.44,0.161751,0.161751,1015.842957,0.001932,0.022571,-0.018714,49.247696,-123.230614,67.599998,LOCKED,5
1.64,0.44,0.121681,0.121681,1015.847839,0.011498,-0.010457,0.013467,49.247696,-123.230614,67.599998,LOCKED,5
1.65,0.44,0.121681,0.121681,1015.847839,0.042175,-0.013728,-0.004501,49.247696,-123.230614,67.599998,LOCKED,5
1.65,0.43,0.135376,0.135376,1015.846191,0.071561,-0.081783,-0.071089,49.247696,-123.230614,67.599998,LOCKED,5
1.65,0.42,0.135376,0.135376,1015.846191,0.055166,-0.100400,-0.069599,49.247696,-123.230614,67.599998,LOCKED,5
1.65,0.40,0.180016,0.180016,1015.840759,0.020957,-0.051663,-0.069307,49.247696,-123.230614,67.599998,LOCKED,5
1.65,0.39,0.180016,0.180016,1015.840759,-0.030250,-0.026484,-0.078635,49.247696,-123.230614,67.599998,LOCKED,5
1.65,0.37,0.180016,0.180016,1015.840759,-0.015255,-0.014040,-0.083157,49.247696,-123.230614,67.599998,LOCKED,5
1.65,0.37,0.180016,0.180016,1015.840759,0.039005,-0.014814,-0.022751,49.247696,-123.230614,67.599998,LOCKED,5
1.65,0.38,0.251030,0.251030,1015.832214,0.036699,0.010406,0.063629,49.247696,-123.230614,67.599998,LOCKED,5
1.66,0.39,0.251030,0.251030,1015.832214,0.030536,0.011398,0.083944,49.247696,-123.230614,67.599998,LOCKED,5
1.66,0.40,0.171898,0.171898,1015.841736,-0.017362,0.042538,0.029473,49.247696,-123.230614,67.599998,LOCKED,5
1.66,0.40,0.171898,0.171898,1015.841736,-0.074835,0.096667,-0.003541,49.247696,-123.230614,67.599998,LOCKED,5
1.66,0.39,0.104942,0.104942,1015.849854,-0.091928,0.140534,-0.014823,49.247696,-123.230614,67.599998,LOCKED,5
1.66,0.40,0.104942,0.104942,1015.849854,-0.093663,0.175882,0.037665,49.247696,-123.230614,67.599998,LOCKED,5
1.66,0.40,0.065880,0.065880,1015.854553,-0.068960,0.143324,0.036658,49.247696,-123.230614,67.599998,LOCKED,5
1.66,0.41,0.065880,0.065880,1015.854553,-0.052554,0.120814,0.006624,49.247696,-123.230614,67.599998,LOCKED,5
1.66,0.39,0.065880,0.065880,1015.854553,-0.021784,0.064682,-0.071515,49.247696,-123.230614,67.599998,LOCKED,5
1.66,0.37,0.065880,0.065880,1015.854553,0.004615,-0.002974,-0.141866,49.247696,-123.230614,67.599998,LOCKED,5
1.66,0.34,0.119141,0.119141,1015.848145,0.080873,-0.062828,-0.157109,49.247696,-123.230614,67.599998,LOCKED,5
1.66,0.32,0.119141,0.119141,1015.848145,0.056616,-0.065246,-0.074527,49.247696,-123.230614,67.599998,LOCKED,5
1.66,0.29,0.119141,0.119141,1015.848145,0.080457,-0.146604,-0.172384,49.247696,-123.230614,67.599998,LOCKED,5
1.66,0.31,0.150085,0.150085,1015.844360,0.081204,-0.008662,0.105666,49.247696,-123.230614,67.599998,LOCKED,5
1.66,0.32,0.150085,0.150085,1015.844360,0.052382,-0.007698,0.055710,49.247696,-123.230614,67.599998,LOCKED,5
1.66,0.32,0.110008,0.110008,1015.849243,-0.025471,0.041644,0.011276,49.247696,-123.230614,67.599998,LOCKED,5
1.66,0.32,0.110008,0.110008,1015.849243,-0.044150,0.058033,-0.002870,49.247696,-123.230614,67.599998,LOCKED,5
1.66,0.32,0.070442,0.070442,1015.854004,-0.077172,0.074705,0.002329,49.247696,-123.230614,67.599998,LOCKED,5
1.66,0.31,0.070442,0.070442,1015.854004,-0.066773,0.067187,-0.022441,49.247696,-123.230614,67.599998,LOCKED,5
1.66,0.31,0.104942,0.104942,1015.849854,-0.052012,0.063839,-0.022482,49.247696,-123.230614,67.599998,LOCKED,5
1.65,0.31,0.104942,0.104942,1015.849854,-0.015553,0.059460,0.031822,49.247696,-123.230614,67.599998,LOCKED,5
1.65,0.33,0.118126,0.118126,1015.848267,0.051040,0.020443,0.089017,49.247696,-123.230614,67.599998,LOCKED,5
1.65,0.34,0.118126,0.118126,1015.848267,0.088436,0.007544,0.065286,49.247696,-123.230614,67.599998,LOCKED,5
1.65,0.34,0.202332,0.202332,1015.838074,0.050050,-0.024542,0.004069,49.247696,-123.230614,67.599998,LOCKED,5
1.65,0.34,0.202332,0.202332,1015.838074,0.042476,-0.009545,-0.015850,49.247696,-123.230614,67.599998,LOCKED,5
1.65,0.34,0.162766,0.162766,1015.842834,0.046020,-0.006511,0.017084,49.247696,-123.230614,67.599998,LOCKED,5
1.65,0.34,0.162766,0.162766,1015.842834,0.007553,0.003255,0.007228,49.247696,-123.230614,67.599998,LOCKED,5
1.65,0.34,0.149071,0.149071,1015.844482,-0.004920,0.035951,0.001599,49.247696,-123.230614,67.599998,LOCKED,5
1.65,0.33,0.149071,0.149071,1015.844482,-0.046999,0.027781,-0.037262,49.247696,-123.230614,67.599998,LOCKED,5
1.65,0.32,0.123199,0.123199,1015.847656,-0.035105,0.018743,-0.077818,49.247696,-123.230614,67.599998,LOCKED,5
1.65,0.31,0.123199,0.123199,1015.847656,-0.013190,0.030183,-0.010506,49.247696,-123.230606,67.599998,LOCKED,5
1.65,0.32,0.092255,0.092255,1015.851379,0.042833,-0.008911,0.017795,49.247696,-123.230606,67.599998,LOCKED,5
1.65,0.32,0.092255,0.092255,1015.851379,0.044043,0.003590,0.043720,49.247696,-123.230606,67.599998,LOCKED,5
1.65,0.33,0.104942,0.104942,1015.849854,0.018547,0.020762,0.032698,49.247696,-123.230606,67.599998,LOCKED,5
1.65,0.33,0.104942,0.104942,1015.849854,-0.001055,0.026171,0.022693,49.247696,-123.230606,67.599998,LOCKED,5
1.65,0.34,0.131821,0.131821,1015.846619,0.011897,0.046408,0.019687,49.247696,-123.230606,67.599998,LOCKED,5
1.65,0.34,0.131821,0.131821,1015.846619,0.004550,0.049244,0.019089,49.247696,-123.230606,67.599998,LOCKED,5
1.65,0.34,0.070442,0.070442,1015.854004,-0.023293,0.056073,0.003869,49.247696,-123.230606,67.599998,LOCKED,5
1.65,0.33,0.070442,0.070442,1015.854004,-0.046154,0.057931,-0.013838,49.247696,-123.230606,67.599998,LOCKED,5
1.65,0.33,0.131821,0.131821,1015.846619,-0.031236,0.063899,-0.007804,49.247696,-123.230606,67.599998,LOCKED,5
1.65,0.34,0.131821,0.131821,1015.846619,-0.016326,0.065556,0.022928,49.247696,-123.230606,67.599998,LOCKED,5
1.65,0.34,0.104942,0.104942,1015.849854,-0.006337,0.052736,0.039930,49.247696,-123.230606,67.599998,LOCKED,5
1.65,0.35,0.104942,0.104942,1015.849854,0.005930,0.043543,0.024011,49.247696,-123.230606,67.599998,LOCKED,5
1.65,0.34,0.003487,0.003487,1015.862061,-0.025571,0.043380,-0.012144,49.247696,-123.230606,67.599998,LOCKED,5
1.65,0.34,0.003487,0.003487,1015.862061,-0.031776,0.038085,-0.032241,49.247696,-123.230606,67.599998,LOCKED,5
1.65,0.33,-0.022377,-0.022377,1015.865173,-0.023423,0.033024,-0.040955,49.247696,-123.230606,67.599998,LOCKED,5
1.65,0.32,-0.022377,-0.022377,1015.865173,-0.007393,0.024666,-0.015451,49.247696,-123.230606,67.599998,LOCKED,5
1.65,0.33,0.051682,0.051682,1015.856262,0.025761,0.014121,0.012982,49.247696,-123.230606,67.599998,LOCKED,5
1.65,0.33,0.051682,0.051682,1015.856262,0.042393,0.029095,0.033277,49.247696,-123.230606,67.599998,LOCKED,5
1.64,0.33,0.025299,0.025299,1015.859436,0.031315,0.014200,0.019793,49.247696,-123.230606,67.599998,LOCKED,5
1.64,0.34,0.025299,0.025299,1015.859436,0.022762,0.017090,0.014490,49.247696,-123.230606,67.599998,LOCKED,5
1.64,0.33,-0.022377,-0.022377,1015.865173,-0.000196,0.008932,-0.034437,49.247696,-123.230606,67.599998,LOCKED,5
1.64,0.32,-0.022377,-0.022377,1015.865173,-0.013456,0.016411,-0.052581,49.247696,-123.230606,67.599998,LOCKED,5
1.64,0.31,-0.009193,-0.009193,1015.863586,0.003978,0.025135,-0.026750,49.247696,-123.230606,67.599998,LOCKED,5
1.64,0.31,-0.009193,-0.009193,1015.863586,0.023494,0.023129,-0.000631,49.247696,-123.230606,64.900002,LOCKED,5
1.64,0.32,-0.009193,-0.009193,1015.863586,0.017155,0.013346,0.018209,49.247696,-123.230606,64.900002,LOCKED,5
1.64,0.32,-0.009193,-0.009193,1015.863586,-0.011364,0.040533,0.009945,49.247696,-123.230606,64.900002,LOCKED,5
1.64,0.32,0.003487,0.003487,1015.862061,-0.040034,0.052853,-0.000979,49.247696,-123.230606,64.900002,LOCKED,5
1.64,0.31,0.003487,0.003487,1015.862061,-0.024381,0.041648,-0.007203,49.247696,-123.230606,64.900002,LOCKED,5
1.63,0.31,-0.009193,-0.009193,1015.863586,-0.015453,0.048222,0.005589,49.247696,-123.230606,64.900002,LOCKED,5
1.63,0.31,-0.009193,-0.009193,1015.863586,-0.010336,0.045378,0.012533,49.247696,-123.230606,64.900002,LOCKED,5
1.63,0.32,0.092255,0.092255,1015.851379,-0.010413,0.042645,0.030869,49.247696,-123.230606,64.900002,LOCKED,5
1.63,0.33,0.092255,0.092255,1015.851379,0.000835,0.042254,0.034940,49.247696,-123.230606,64.900002,LOCKED,5
1.63,0.33,0.003487,0.003487,1015.862061,-0.012074,0.048974,0.011747,49.247696,-123.230606,64.900002,LOCKED,5
1.63,0.33,0.003487,0.003487,1015.862061,-0.006732,0.052099,0.015140,49.247696,-123.230606,64.900002,LOCKED,5
1.63,0.33,0.092255,0.092255,1015.851379,-0.004265,0.047161,0.011360,49.247696,-123.230606,64.900002,LOCKED,5
1.63,0.33,0.092255,0.092255,1015.851379,0.002869,0.025326,0.004336,49.247696,-123.230606,64.900002,LOCKED,5
1.63,0.33,0.017181,0.017181,1015.860413,0.004371,0.020209,-0.021890,49.247696,-123.230606,64.900002,LOCKED,5
1.63,0.32,0.017181,0.017181,1015.860413,0.005085,0.017460,-0.017821,49.247696,-123.230606,64.900002,LOCKED,5
1.63,0.32,0.118126,0.118126,1015.848267,0.015497,0.001202,-0.025417,49.247696,-123.230606,64.900002,LOCKED,5
1.63,0.31,0.118126,0.118126,1015.848267,0.006492,0.003379,-0.018710,49.247696,-123.230606,64.900002,LOCKED,5
1.63,0.31,0.118126,0.118126,1015.848267,0.008791,0.016106,-0.010098,49.247696,-123.230606,64.900002,LOCKED,5
1.63,0.31,0.118126,0.118126,1015.848267,0.007950,0.020795,0.000607,49.247696,-123.230606,64.900002,LOCKED,5
1.63,0.31,0.104942,0.104942,1015.849854,-0.005073,0.024042,0.000812,49.247696,-123.230606,64.900002,LOCKED,5
1.63,0.31,0.104942,0.104942,1015.849854,-0.016699,0.031440,-0.006119,49.247696,-123.230606,64.900002,LOCKED,5
1.63,0.30,0.175957,0.175957,1015.841248,-0.013646,0.029370,-0.010080,49.247696,-123.230606,64.900002,LOCKED,5
1.62,0.30,0.175957,0.175957,1015.841248,-0.010310,0.030992,-0.004638,49.247696,-123.230606,64.900002,LOCKED,5
1.62,0.30,0.123199,0.123199,1015.847656,-0.010619,0.041067,0.010825,49.247696,-123.230606,64.900002,LOCKED,5
1.62,0.30,0.123199,0.123199,1015.847656,-0.008393,0.041278,0.010753,49.247696,-123.230606,64.900002,LOCKED,5
1.62,0.30,0.114578,0.114578,1015.848694,-0.010272,0.044620,-0.007702,49.247696,-123.230606,64.900002,LOCKED,5
1.62,0.30,0.114578,0.114578,1015.848694,-0.012649,0.056583,-0.006734,49.247696,-123.230606,64.900002,LOCKED,5
1.62,0.30,0.114578,0.114578,1015.848694,-0.015024,0.065697,-0.006809,49.247696,-123.230606,64.900002,LOCKED,5
1.62,0.29,0.114578,0.114578,1015.848694,-0.005386,0.047906,-0.030808,49.247696,-123.230606,64.900002,LOCKED,5
1.62,0.29,0.048126,0.048126,1015.856689,-0.008188,0.045029,-0.023482,49.247696,-123.230606,64.900002,LOCKED,5
1.62,0.29,0.048126,0.048126,1015.856689,-0.008768,0.048152,-0.009359,49.247696,-123.230606,64.900002,LOCKED,5
1.62,0.29,0.021751,0.021751,1015.859863,0.011373,0.054318,0.027333,49.247696,-123.230606,64.900002,LOCKED,5
1.62,0.30,0.021751,0.021751,1015.859863,0.020728,0.048105,0.043356,49.247696,-123.230606,64.900002,LOCKED,5
1.61,0.30,-0.076149,-0.076149,1015.871704,0.019073,0.037695,0.047365,49.247696,-123.230606,64.900002,LOCKED,5
1.61,0.31,-0.076149,-0.076149,1015.871704,0.006826,0.016920,0.027647,49.247696,-123.230606,64.900002,LOCKED,5
1.61,0.31,0.008057,0.008057,1015.870056,-0.016340,0.007907,0.007892,49.247696,-123.230606,64.900002,LOCKED,5
1.61,0.31,0.008057,0.008057,1015.861511,-0.027756,0.014047,-0.008059,49.247704,-123.230598,64.900002,LOCKED,5
1.61,0.30,-0.018326,-0.018326,1015.861511,-0.018487,0.015555,-0.014084,49.247704,-123.230598,64.900002,LOCKED,5
1.61,0.30,0.053200,0.053200,1015.856079,-0.006356,0.019926,-0.000099,49.247704,-123.230598,64.900002,LOCKED,5
1.61,0.30,0.053200,0.053200,1015.856079,0.000951,0.019751,0.008900,49.247704,-123.230598,64.900002,LOCKED,5
1.61,0.31,0.027328,0.027328,1015.859192,0.008364,0.020929,0.017050,49.247704,-123.230598,64.900002,LOCKED,5
1.61,0.31,0.027328,0.027328,1015.859192,0.018217,0.026736,0.038363,49.247704,-123.230598,64.900002,LOCKED,5
1.60,0.32,-0.025932,-0.025932,1015.865601,0.009437,0.040116,0.035433,49.247704,-123.230598,64.900002,LOCKED,5
1.60,0.32,-0.025932,-0.025932,1015.865601,-0.004732,0.042891,0.011755,49.247704,-123.230598,64.900002,LOCKED,5
1.60,0.32,-0.039116,-0.039116,1015.867249,-0.020959,0.047547,-0.005349,49.247704,-123.230598,64.900002,LOCKED,5
1.60,0.31,-0.039116,-0.039116,1015.867249,-0.012803,0.051791,-0.014695,49.247704,-123.230598,64.900002,LOCKED,5
1.60,0.31,-0.110641,-0.110641,1015.875854,0.008448,0.063663,0.010369,49.247704,-123.230598,64.900002,LOCKED,5
1.60,0.32,-0.110641,-0.110641,1015.875854,0.036838,0.050803,0.022151,49.247704,-123.230598,64.900002,LOCKED,5
1.60,0.32,-0.084267,-0.084267,1015.872681,0.025435,0.045002,0.027764,49.247704,-123.230598,64.900002,LOCKED,5
1.60,0.33,-0.084267,-0.084267,1015.872681,0.034292,0.054618,0.051426,49.247704,-123.230598,64.900002,LOCKED,5
1.60,0.34,-0.071075,-0.071075,1015.871094,0.027466,0.060717,0.058965,49.247704,-123.230598,64.900002,LOCKED,5
1.60,0.34,-0.071075,-0.071075,1015.871094,0.029038,0.046791,0.027053,49.247704,-123.230598,64.900002,LOCKED,5
1.60,0.36,-0.071075,-0.071075,1015.871094,0.034986,0.054831,0.064737,49.247704,-123.230598,64.900002,LOCKED,5
1.59,0.36,-0.071075,-0.071075,1015.871094,0.050017,0.051185,0.056747,49.247704,-123.230598,64.900002,LOCKED,5
1.59,0.37,-0.071075,-0.071075,1015.871094,0.032478,0.060007,0.045039,49.247704,-123.230598,64.900002,LOCKED,5
1.59,0.38,-0.071075,-0.071075,1015.871094,0.005291,0.058985,0.025961,49.247704,-123.230598,64.900002,LOCKED,5
1.59,0.38,-0.071075,-0.071075,1015.871094,0.006657,0.052906,0.027109,49.247704,-123.230598,64.900002,LOCKED,5
1.59,0.38,-0.071075,-0.071075,1015.871094,0.017928,0.045840,0.020408,49.247704,-123.230598,64.900002,LOCKED,5
1.59,0.38,-0.031509,-0.031509,1015.866272,0.007184,0.045690,0.010005,49.247704,-123.230598,64.900002,LOCKED,5
1.60,0.39,-0.031509,-0.031509,1015.866272,0.004758,0.041092,0.015735,49.247704,-123.230598,64.900002,LOCKED,5
1.60,0.39,-0.018326,-0.018326,1015.864685,0.000506,0.030650,0.003991,49.247704,-123.230598,64.900002,LOCKED,5
1.60,0.39,-0.018326,-0.018326,1015.864685,-0.007315,0.047726,0.014585,49.247704,-123.230598,64.900002,LOCKED,5
1.60,0.39,0.021751,0.021751,1015.859863,0.007751,0.052474,0.042183,49.247704,-123.230598,64.900002,LOCKED,5
1.60,0.40,0.021751,0.021751,1015.859863,0.005432,0.057598,0.026463,49.247704,-123.230598,64.900002,LOCKED,5
1.60,0.41,-0.062454,-0.062454,1015.870056,-0.013940,0.052864,0.048933,49.247704,-123.230598,64.900002,LOCKED,5
1.60,0.42,-0.062454,-0.062454,1015.870056,-0.006888,0.039532,0.076113,49.247704,-123.230598,64.900002,LOCKED,5
1.60,0.43,-0.076149,-0.076149,1015.871704,-0.015290,0.038658,0.093388,49.247704,-123.230598,64.900002,LOCKED,5
1.60,0.45,-0.076149,-0.076149,1015.871704,-0.023299,0.012623,0.084585,49.247704,-123.230598,64.900002,LOCKED,5
1.60,0.46,-0.031509,-0.031509,1015.866272,-0.031312,0.018057,0.078581,49.247704,-123.230598,64.900002,LOCKED,5
1.60,0.48,-0.031509,-0.031509,1015.866272,-0.017110,0.027550,0.078150,49.247704,-123.230598,64.900002,LOCKED,5
1.61,0.49,-0.102020,-0.102020,1015.874817,-0.017835,0.054556,0.074927,49.247704,-123.230598,64.900002,LOCKED,5
1.61,0.50,-0.102020,-0.102020,1015.874817,-0.020901,0.054190,0.077751,49.247704,-123.230598,64.900002,LOCKED,5
1.61,0.51,-0.057381,-0.057381,1015.869446,-0.028807,0.069299,0.064940,49.247707,-123.230598,64.900002,LOCKED,5
1.61,0.52,-0.057381,-0.057381,1015.869446,-0.084640,0.081844,0.037157,49.247707,-123.230598,64.900002,LOCKED,5
1.61,0.52,-0.044701,-0.044701,1015.867920,-0.092544,0.072634,0.039184,49.247707,-123.230598,64.900002,LOCKED,5
1.62,0.53,-0.044701,-0.044701,1015.867920,-0.039037,0.072652,0.058526,49.247707,-123.230598,64.900002,LOCKED,5
1.62,0.54,-0.057381,-0.057381,1015.869446,-0.017071,0.012492,0.063602,49.247707,-123.230598,64.900002,LOCKED,5
1.62,0.55,-0.057381,-0.057381,1015.869446,-0.036169,-0.018789,0.013017,49.247707,-123.230598,64.900002,LOCKED,5
1.63,0.55,-0.057381,-0.057381,1015.869446,-0.011738,-0.037696,0.002891,49.247707,-123.230598,64.900002,LOCKED,5
1.63,0.55,-0.057381,-0.057381,1015.869446,0.019167,-0.009926,0.042631,49.247707,-123.230598,64.900002,LOCKED,5
1.63,0.56,-0.044701,-0.044701,1015.867920,0.007994,-0.004438,0.029668,49.247707,-123.230598,64.900002,LOCKED,5
1.64,0.54,-0.044701,-0.044701,1015.867920,-0.043376,0.032330,-0.078245,49.247707,-123.230598,64.900002,LOCKED,5
1.64,0.53,-0.044701,-0.044701,1015.867920,-0.047583,0.057164,-0.075911,49.247707,-123.230598,64.900002,LOCKED,5
1.64,0.52,-0.044701,-0.044701,1015.867920,-0.010451,0.074845,-0.021127,49.247707,-123.230598,64.900002,LOCKED,5
1.64,0.52,0.040009,0.040009,1015.857666,0.005115,0.077789,-0.012465,49.247707,-123.230598,64.900002,LOCKED,5
1.65,0.52,0.040009,0.040009,1015.857666,0.031681,0.054059,-0.006228,49.247707,-123.230598,64.900002,LOCKED,5
1.65,0.52,0.027328,0.027328,1015.859192,0.063988,0.020641,0.016222,49.247707,-123.230598,64.900002,LOCKED,5
1.65,0.52,0.027328,0.027328,1015.859192,0.045277,0.020078,-0.003107,49.247707,-123.230598,64.900002,LOCKED,5
1.66,0.51,0.111534,0.111534,1015.849060,0.004949,0.015800,-0.032625,49.247707,-123.230598,64.900002,LOCKED,5
1.66,0.51,0.111534,0.111534,1015.849060,0.025077,0.022208,-0.026076,49.247707,-123.230598,64.900002,LOCKED,5
1.66,0.51,0.040009,0.040009,1015.857666,0.031649,0.039438,0.024201,49.247707,-123.230598,64.900002,LOCKED,5
1.66,0.51,0.040009,0.040009,1015.857666,0.025075,0.026801,0.007859,49.247707,-123.230598,64.900002,LOCKED,5
1.67,0.50,0.111534,0.111534,1015.849060,0.015403,0.031729,-0.036884,49.247707,-123.230598,64.900002,LOCKED,5
1.67,0.50,0.111534,0.111534,1015.849060,-0.038563,0.016874,-0.034611,49.247707,-123.230598,64.900002,LOCKED,5
1.67,0.50,0.111534,0.111534,1015.849060,-0.011414,-0.019354,0.040199,49.247707,-123.230598,64.900002,LOCKED,5
1.67,0.51,0.111534,0.111534,1015.849060,0.059047,-0.003992,0.059437,49.247707,-123.230598,64.900002,LOCKED,5
1.68,0.52,0.111534,0.111534,1015.849060,-0.001504,-0.008810,0.045876,49.247707,-123.230598,64.900002,LOCKED,5
1.68,0.52,0.111534,0.111534,1015.849060,-0.028563,-0.006802,-0.009421,49.247707,-123.230598,64.900002,LOCKED,5
1.68,0.51,0.030884,0.030884,1015.858765,-0.079268,0.003477,-0.044249,49.247707,-123.230598,64.900002,LOCKED,5
1.69,0.50,0.030884,0.030884,1015.858765,-0.092570,-0.000125,-0.072795,49.247707,-123.230598,64.900002,LOCKED,5
1.69,0.49,-0.008179,-0.008179,1015.863464,-0.083204,0.031024,-0.052609,49.247707,-123.230598,64.900002,LOCKED,5
1.69,0.49,-0.008179,-0.008179,1015.863464,-0.033846,0.032141,0.001950,49.247707,-123.230598,64.900002,LOCKED,5
1.69,0.49,0.025810,0.025810,1015.859375,0.001833,0.053538,0.049665,49.247707,-123.230598,64.900002,LOCKED,5
1.69,0.50,0.025810,0.025810,1015.859375,0.011680,0.055000,0.061212,49.247707,-123.230598,64.900002,LOCKED,5
1.70,0.50,0.025810,0.025810,1015.859375,-0.003472,0.067645,0.007158,49.247707,-123.230598,64.900002,LOCKED,5
1.70,0.49,0.025810,0.025810,1015.859375,-0.019190,0.076577,-0.083031,49.247707,-123.230598,64.900002,LOCKED,5
1.70,0.46,0.097328,0.097328,1015.850769,-0.037434,0.080076,-0.135298,49.247707,-123.230598,64.900002,LOCKED,5
1.70,0.44,0.097328,0.097328,1015.850769,-0.021690,0.063787,-0.146231,49.247707,-123.230598,64.900002,LOCKED,5
1.70,0.42,0.181534,0.181534,1015.840576,0.021243,0.043416,-0.119273,49.247707,-123.230591,64.900002,LOCKED,5
1.70,0.40,0.181534,0.181534,1015.840576,0.047644,0.021760,-0.086726,49.247707,-123.230591,64.900002,LOCKED,5
1.70,0.38,0.266754,0.266754,1015.830322,0.047220,0.009093,-0.077397,49.247707,-123.230591,64.900002,LOCKED,5
1.71,0.37,0.266754,0.266754,1015.830322,0.035019,0.015195,-0.055183,49.247707,-123.230591,64.900002,LOCKED,5
1.71,0.36,0.266754,0.266754,1015.830322,0.033621,0.013520,-0.063429,49.247707,-123.230591,64.900002,LOCKED,5
1.71,0.35,0.266754,0.266754,1015.830322,0.015522,0.031220,-0.065030,49.247707,-123.230591,64.900002,LOCKED,5
1.71,0.34,0.292625,0.292625,1015.827209,0.012291,0.067732,-0.029904,49.247707,-123.230591,64.900002,LOCKED,5
1.71,0.34,0.292625,0.292625,1015.827209,0.027928,0.057168,-0.003563,49.247707,-123.230591,64.900002,LOCKED,5
1.71,0.34,0.266754,0.266754,1015.830322,0.049212,0.038655,-0.009631,49.247707,-123.230591,64.900002,LOCKED,5
1.71,0.34,0.266754,0.266754,1015.830322,0.051453,0.023906,-0.005178,49.247707,-123.230591,64.900002,LOCKED,5
1.71,0.34,0.266754,0.266754,1015.830322,0.047888,0.035408,0.010401,49.247707,-123.230591,64.900002,LOCKED,5
1.71,0.34,0.266754,0.266754,1015.830322,0.045680,0.040371,0.033667,49.247707,-123.230591,64.900002,LOCKED,5
1.71,0.35,0.266754,0.266754,1015.830322,0.061780,0.035602,0.049338,49.247707,-123.230591,64.900002,LOCKED,5
1.71,0.36,0.279938,0.279938,1015.828735,0.049541,0.037581,0.059208,49.247707,-123.230591,64.900002,LOCKED,5
1.71,0.37,0.279938,0.279938,1015.828735,0.021776,0.045116,0.057911,49.247707,-123.230591,64.900002,LOCKED,5
1.71,0.38,0.226677,0.226677,1015.835144,-0.004875,0.043777,0.050248,49.247707,-123.230591,64.900002,LOCKED,5
1.71,0.39,0.226677,0.226677,1015.835144,-0.008333,0.034369,0.049464,49.247707,-123.230591,64.900002,LOCKED,5
1.71,0.40,0.310883,0.310883,1015.825012,0.019838,0.015201,0.076517,49.247707,-123.230591,64.900002,LOCKED,5
1.72,0.42,0.310883,0.310883,1015.825012,0.047982,0.004307,0.093355,49.247707,-123.230591,64.900002,LOCKED,5
1.72,0.43,0.213493,0.213493,1015.836731,0.052600,0.008942,0.097281,49.247707,-123.230591,64.900002,LOCKED,5
1.72,0.45,0.213493,0.213493,1015.836731,0.006379,0.029100,0.092412,49.247707,-123.230591,64.900002,LOCKED,5
1.72,0.46,0.186096,0.186096,1015.840027,-0.036299,0.040759,0.060794,49.247707,-123.230591,64.900002,LOCKED,5
1.72,0.46,0.186096,0.186096,1015.840027,-0.041383,0.028395,0.022609,49.247707,-123.230591,64.900002,LOCKED,5
1.73,0.46,0.226677,0.226677,1015.835144,-0.016532,0.019700,0.003384,49.247707,-123.230591,64.900002,LOCKED,5
1.73,0.47,0.226677,0.226677,1015.835144,0.002652,0.008435,0.021900,49.247704,-123.230583,59.900002,LOCKED,5
1.73,0.48,0.213493,0.213493,1015.836731,0.025287,0.012392,0.071149,49.247704,-123.230583,59.900002,LOCKED,5
1.73,0.49,0.213493,0.213493,1015.836731,0.011660,0.029517,0.074868,49.247704,-123.230583,59.900002,LOCKED,5
1.73,0.50,0.226677,0.226677,1015.835144,-0.033323,0.051397,0.037884,49.247704,-123.230583,59.900002,LOCKED,5
1.74,0.50,0.226677,0.226677,1015.835144,-0.044268,0.054883,0.019414,49.247704,-123.230583,59.900002,LOCKED,5
1.74,0.50,0.155159,0.155159,1015.843750,-0.045565,0.053515,0.026604,49.247704,-123.230583,59.900002,LOCKED,5
1.74,0.51,0.155159,0.155159,1015.843750,-0.017564,0.058742,0.057847,49.247704,-123.230583,59.900002,LOCKED,5
1.75,0.52,0.222115,0.222115,1015.835693,0.003192,0.052787,0.050626,49.247704,-123.230583,59.900002,LOCKED,5
1.75,0.53,0.222115,0.222115,1015.835693,-0.027178,0.087332,0.038776,49.247704,-123.230583,59.900002,LOCKED,5
1.75,0.53,0.217041,0.217041,1015.836304,-0.046906,0.069411,0.010883,49.247704,-123.230583,59.900002,LOCKED,5
1.76,0.53,0.217041,0.217041,1015.836304,-0.032170,0.040271,-0.002895,49.247704,-123.230583,59.900002,LOCKED,5
1.76,0.52,0.243416,0.243416,1015.833130,-0.040070,0.020125,-0.021968,49.247704,-123.230583,59.900002,LOCKED,5
1.76,0.52,0.243416,0.243416,1015.833130,-0.034649,0.007946,-0.026638,49.247704,-123.230583,59.900002,LOCKED,5
1.77,0.51,0.243416,0.243416,1015.833130,-0.023672,0.004932,-0.023879,49.247704,-123.230583,59.900002,LOCKED,5
1.77,0.51,0.243416,0.243416,1015.833130,-0.058344,0.046015,-0.005617,49.247704,-123.230583,59.900002,LOCKED,5
1.77,0.51,0.270302,0.270302,1015.829895,-0.083442,0.053341,0.011445,49.247704,-123.230583,59.900002,LOCKED,5
1.78,0.52,0.270302,0.270302,1015.829895,-0.056582,0.034145,0.017341,49.247704,-123.230583,59.900002,LOCKED,5
1.78,0.52,0.256607,0.256607,1015.831543,-0.054303,0.022721,0.027091,49.247704,-123.230583,59.900002,LOCKED,5
1.78,0.53,0.256607,0.256607,1015.831543,-0.040619,0.013642,0.045900,49.247704,-123.230583,59.900002,LOCKED,5
1.79,0.53,0.340813,0.340813,1015.821350,-0.072531,0.031434,0.029510,49.247704,-123.230583,59.900002,LOCKED,5
1.79,0.54,0.340813,0.340813,1015.821350,-0.083979,0.042995,0.029947,49.247704,-123.230583,59.900002,LOCKED,5
1.79,0.54,0.327118,0.327118,1015.822998,-0.102346,0.082477,0.041309,49.247704,-123.230583,59.900002,LOCKED,5
1.80,0.55,0.327118,0.327118,1015.822998,-0.103223,0.081698,0.017102,49.247704,-123.230583,59.900002,LOCKED,5
1.80,0.54,0.426033,0.426033,1015.811096,-0.111532,0.072915,-0.010166,49.247704,-123.230583,59.900002,LOCKED,5
1.80,0.54,0.426033,0.426033,1015.811096,-0.100162,0.063215,-0.038422,49.247704,-123.230583,59.900002,LOCKED,5
1.81,0.52,0.465599,0.465599,1015.806335,-0.104587,0.055701,-0.065137,49.247704,-123.230583,59.900002,LOCKED,5
1.81,0.51,0.465599,0.465599,1015.806335,-0.099600,0.058962,-0.084478,49.247704,-123.230583,59.900002,LOCKED,5
1.82,0.49,0.439224,0.439224,1015.809509,-0.067788,0.053868,-0.096893,49.247704,-123.230583,59.900002,LOCKED,5
1.82,0.47,0.439224,0.439224,1015.809509,-0.055286,0.047256,-0.087705,49.247704,-123.230583,59.900002,LOCKED,5
1.82,0.46,0.439224,0.439224,1015.809509,-0.098454,0.057378,-0.097497,49.247704,-123.230583,59.900002,LOCKED,5
1.82,0.44,0.439224,0.439224,1015.809509,-0.141817,0.073414,-0.099316,49.247704,-123.230583,59.900002,LOCKED,5
1.83,0.42,0.327118,0.327118,1015.822998,-0.119704,0.071217,-0.106872,49.247704,-123.230583,59.900002,LOCKED,5
1.83,0.40,0.327118,0.327118,1015.822998,-0.091914,0.049022,-0.103677,49.247704,-123.230583,59.900002,LOCKED,5
1.83,0.38,0.340813,0.340813,1015.821350,-0.067041,0.037291,-0.107190,49.247704,-123.230583,59.900002,LOCKED,5
1.83,0.36,0.340813,0.340813,1015.821350,-0.061615,0.039152,-0.098137,49.247704,-123.230583,59.900002,LOCKED,5
1.83,0.34,0.314941,0.314941,1015.824524,-0.069416,0.026896,-0.097396,49.247704,-123.230583,59.900002,LOCKED,5
1.83,0.32,0.314941,0.314941,1015.824524,-0.053564,0.021706,-0.098122,49.247704,-123.230583,59.900002,LOCKED,5
1.83,0.31,0.345375,0.345375,1015.820801,-0.060342,0.025699,-0.069006,49.247704,-123.230583,59.900002,LOCKED,5
1.83,0.30,0.345375,0.345375,1015.820801,-0.029870,0.020300,-0.039586,49.247704,-123.230583,59.900002,LOCKED,5
1.83,0.30,0.332695,0.332695,1015.822327,-0.025994,0.017834,-0.033395,49.247704,-123.230583,59.900002,LOCKED,5
1.83,0.29,0.332695,0.332695,1015.822327,-0.031240,0.017407,-0.028789,49.247704,-123.230583,59.900002,LOCKED,5
1.83,0.29,0.345375,0.345375,1015.820801,-0.025552,0.029182,-0.014520,49.247704,-123.230583,59.900002,LOCKED,5
1.82,0.29,0.345375,0.345375,1015.820801,-0.034450,0.041236,0.009059,49.247704,-123.230583,59.900002,LOCKED,5
1.82,0.29,0.416901,0.416901,1015.812195,-0.055649,0.050604,0.017294,49.247704,-123.230583,59.900002,LOCKED,5
1.82,0.29,0.416901,0.416901,1015.812195,-0.053718,0.036980,0.020221,49.247704,-123.230583,59.900002,LOCKED,5
1.82,0.30,0.363640,0.363640,1015.818604,-0.057735,0.041897,0.016974,49.247704,-123.230583,59.900002,LOCKED,5
1.82,0.30,0.363640,0.363640,1015.818604,-0.064884,0.028862,0.007937,49.247704,-123.230583,59.900002,LOCKED,5
1.82,0.29,0.424507,0.424507,1015.811279,-0.087280,0.038122,-0.017462,49.247704,-123.230583,59.900002,LOCKED,5
1.82,0.29,0.424507,0.424507,1015.811279,-0.118296,0.049086,-0.019550,49.247704,-123.230583,59.900002,LOCKED,5
1.82,0.29,0.438210,0.438210,1015.809631,-0.119233,0.063948,-0.013944,49.247704,-123.230583,59.900002,LOCKED,5
1.82,0.29,0.438210,0.438210,1015.809631,-0.084231,0.053596,0.003776,49.247704,-123.230583,59.900002,LOCKED,5
1.82,0.29,0.424507,0.424507,1015.811279,-0.089571,0.047869,0.002116,49.247704,-123.230583,59.900002,LOCKED,5
1.82,0.28,0.424507,0.424507,1015.811279,-0.107179,0.056496,-0.024095,49.247704,-123.230583,59.900002,LOCKED,5
1.82,0.28,0.607124,0.607124,1015.789246,-0.109777,0.057303,-0.013217,49.247704,-123.230583,59.900002,LOCKED,5
1.82,0.28,0.607124,0.607124,1015.789246,-0.096637,0.066196,0.016562,49.247704,-123.230583,59.900002,LOCKED,5
1.82,0.28,0.581253,0.581253,1015.792358,-0.079433,0.068698,0.032398,49.247704,-123.230583,59.900002,LOCKED,5
1.82,0.29,0.581253,0.581253,1015.792358,-0.081780,0.064235,0.008351,49.247704,-123.230583,59.900002,LOCKED,5
1.82,0.28,0.625389,0.625389,1015.787048,-0.076937,0.043137,-0.030208,49.247704,-123.230583,59.900002,LOCKED,5
1.82,0.28,0.625389,0.625389,1015.787048,-0.071551,0.047851,-0.018796,49.247704,-123.230583,59.900002,LOCKED,5
1.82,0.27,0.625389,0.625389,1015.787048,-0.072182,0.045786,-0.008884,49.247704,-123.230583,59.900002,LOCKED,5
1.82,0.27,0.625389,0.625389,1015.787048,-0.070565,0.043035,-0.008373,49.247704,-123.230583,59.900002,LOCKED,5
1.82,0.27,0.585312,0.585312,1015.791870,-0.061162,0.040963,-0.031277,49.247704,-123.230583,59.900002,LOCKED,5
1.82,0.26,0.585312,0.585312,1015.791870,-0.076412,0.058693,-0.037476,49.247704,-123.230583,59.900002,LOCKED,5
1.82,0.25,0.559441,0.559441,1015.794983,-0.061745,0.070353,-0.025274,49.247704,-123.230583,59.900002,LOCKED,5
1.82,0.25,0.559441,0.559441,1015.794983,-0.051808,0.070415,0.003090,49.247704,-123.230583,59.900002,LOCKED,5
1.82,0.26,0.448349,0.448349,1015.794983,-0.068015,0.091586,0.017504,49.247704,-123.230583,59.900002,LOCKED,5
1.82,0.25,0.448349,0.448349,1015.808411,-0.097921,0.101076,-0.008063,49.247704,-123.230583,59.900002,LOCKED,5
1.81,0.25,0.448349,0.448349,1015.808411,-0.111010,0.103714,-0.030194,49.247704,-123.230583,59.900002,LOCKED,5
1.81,0.24,0.407768,0.407768,1015.813293,-0.103956,0.106210,-0.020278,49.247704,-123.230583,59.900002,LOCKED,5
1.81,0.24,0.407768,0.407768,1015.813293,-0.075694,0.079422,0.007077,49.247704,-123.230583,59.900002,LOCKED,5
1.81,0.25,0.395088,0.395088,1015.814819,-0.058337,0.067355,0.016970,49.247704,-123.230583,59.900002,LOCKED,5
1.81,0.25,0.395088,0.395088,1015.814819,-0.080381,0.075844,0.025221,49.247704,-123.230583,59.900002,LOCKED,5
1.81,0.25,0.506180,0.506180,1015.801392,-0.081641,0.082685,0.029124,49.247707,-123.230576,59.900002,LOCKED,5
1.81,0.26,0.506180,0.506180,1015.801392,-0.104402,0.092820,0.025453,49.247707,-123.230576,59.900002,LOCKED,5
1.81,0.26,0.532051,0.532051,1015.798279,-0.108312,0.092068,0.018968,49.247707,-123.230576,59.900002,LOCKED,5
1.81,0.27,0.532051,0.532051,1015.798279,-0.124573,0.104651,0.033495,49.247707,-123.230576,59.900002,LOCKED,5
1.81,0.27,0.532051,0.532051,1015.798279,-0.111891,0.099227,0.040223,49.247707,-123.230576,59.900002,LOCKED,5
1.81,0.28,0.532051,0.532051,1015.798279,-0.089725,0.087361,0.040149,49.247707,-123.230576,59.900002,LOCKED,5
1.81,0.29,0.518860,0.518860,1015.799866,-0.077283,0.080329,0.043263,49.247707,-123.230576,59.900002,LOCKED,5
1.81,0.30,0.518860,0.518860,1015.799866,-0.054350,0.070644,0.073443,49.247707,-123.230576,59.900002,LOCKED,5
1.81,0.31,0.590385,0.590385,1015.791260,-0.074009,0.079510,0.070687,49.247707,-123.230576,59.900002,LOCKED,5
1.81,0.32,0.590385,0.590385,1015.791260,-0.090805,0.087710,0.034348,49.247707,-123.230576,59.900002,LOCKED,5
1.81,0.32,0.518860,0.518860,1015.799866,-0.108947,0.107986,0.020721,49.247707,-123.230576,59.900002,LOCKED,5
1.81,0.32,0.518860,0.518860,1015.799866,-0.107766,0.112915,0.028903,49.247707,-123.230576,59.900002,LOCKED,5
1.81,0.33,0.493500,0.493500,1015.802979,-0.083133,0.111722,0.051188,49.247707,-123.230576,59.900002,LOCKED,5
1.81,0.35,0.493500,0.493500,1015.802979,-0.037843,0.067948,0.077174,49.247707,-123.230576,59.900002,LOCKED,5
1.81,0.35,0.537125,0.537125,1015.797668,-0.043936,0.062178,0.048210,49.247707,-123.230576,59.900002,LOCKED,5
1.81,0.35,0.537125,0.537125,1015.797668,-0.088297,0.078562,-0.013024,49.247707,-123.230576,59.900002,LOCKED,5
1.81,0.34,0.439728,0.439728,1015.809448,-0.093886,0.106129,-0.036069,49.247707,-123.230576,59.900002,LOCKED,5
1.81,0.34,0.439728,0.439728,1015.809448,-0.088128,0.137619,-0.030602,49.247707,-123.230576,59.900002,LOCKED,5
1.81,0.34,0.524445,0.524445,1015.799194,-0.075774,0.123506,0.008005,49.247707,-123.230576,59.900002,LOCKED,5
1.81,0.34,0.524445,0.524445,1015.799194,-0.044526,0.105790,0.024461,49.247707,-123.230576,59.900002,LOCKED,5
1.82,0.34,0.585312,0.585312,1015.791870,-0.038921,0.085050,0.006656,49.247707,-123.230576,59.900002,LOCKED,5
1.82,0.34,0.585312,0.585312,1015.791870,-0.056343,0.074726,-0.021507,49.247707,-123.230576,59.900002,LOCKED,5
1.82,0.33,0.585312,0.585312,1015.791870,-0.065586,0.077423,-0.047838,49.247707,-123.230576,59.900002,LOCKED,5
1.82,0.32,0.585312,0.585312,1015.791870,-0.060333,0.078380,-0.041682,49.247707,-123.230576,59.900002,LOCKED,5
1.82,0.32,0.532051,0.532051,1015.798279,-0.052548,0.063828,-0.031254,49.247707,-123.230576,59.900002,LOCKED,5
1.82,0.31,0.532051,0.532051,1015.798279,-0.055541,0.047940,-0.042654,49.247707,-123.230576,59.900002,LOCKED,5
1.82,0.30,0.603577,0.603577,1015.789673,-0.065533,0.042018,-0.061046,49.247707,-123.230576,59.900002,LOCKED,5
1.82,0.28,0.603577,0.603577,1015.789673,-0.071230,0.032704,-0.065035,49.247707,-123.230576,59.900002,LOCKED,5
1.82,0.27,0.562996,0.562996,1015.794556,-0.070552,0.035472,-0.071912,49.247707,-123.230576,59.900002,LOCKED,5
1.82,0.26,0.562996,0.562996,1015.794556,-0.061565,0.052933,-0.058516,49.247707,-123.230576,59.900002,LOCKED,5
1.82,0.25,0.562996,0.562996,1015.794556,-0.063734,0.027528,-0.040470,49.247707,-123.230576,59.900002,LOCKED,5
1.82,0.25,0.562996,0.562996,1015.794556,-0.054593,0.001934,-0.023226,49.247707,-123.230576,59.900002,LOCKED,5
1.82,0.24,0.594955,0.594955,1015.790710,-0.059588,-0.018673,-0.018515,49.247707,-123.230576,59.900002,LOCKED,5
1.82,0.24,0.594955,0.594955,1015.790710,-0.075419,0.014251,-0.027559,49.247707,-123.230576,59.900002,LOCKED,5
1.82,0.23,0.586327,0.586327,1015.791748,-0.078873,0.051256,-0.033165,49.247707,-123.230576,59.900002,LOCKED,5
1.82,0.22,0.586327,0.586327,1015.791748,-0.094576,0.047678,-0.049028,49.247707,-123.230576,59.900002,LOCKED,5
1.81,0.21,0.586327,0.586327,1015.791748,-0.085311,0.043815,-0.037095,49.247715,-123.230576,59.900002,LOCKED,5
1.81,0.21,0.586327,0.586327,1015.791748,-0.094658,0.041693,-0.039292,49.247715,-123.230576,59.900002,LOCKED,5
1.81,0.20,0.586327,0.586327,1015.791748,-0.106246,0.012711,-0.031560,49.247715,-123.230576,59.900002,LOCKED,5
1.81,0.19,0.586327,0.586327,1015.791748,-0.129783,-0.008840,-0.055059,49.247715,-123.230576,59.900002,LOCKED,5
1.81,0.18,0.560455,0.560455,1015.794861,-0.131364,-0.004939,-0.037654,49.247715,-123.230576,59.900002,LOCKED,5
1.81,0.19,0.560455,0.560455,1015.794861,-0.126788,0.010533,0.023473,49.247715,-123.230576,59.900002,LOCKED,5
1.81,0.20,0.564514,0.564514,1015.794373,-0.115876,-0.047074,0.065064,49.247715,-123.230576,59.900002,LOCKED,5
1.80,0.22,0.564514,0.564514,1015.794373,-0.122098,-0.025075,0.105028,49.247715,-123.230576,59.900002,LOCKED,5
1.80,0.23,0.551331,0.551331,1015.795959,-0.090217,0.059348,0.062077,49.247715,-123.230576,59.900002,LOCKED,5
1.80,0.25,0.551331,0.551331,1015.795959,-0.030885,0.152034,0.114921,49.247715,-123.230576,59.900002,LOCKED,5
1.80,0.27,0.472702,0.472702,1015.805481,0.012439,0.184218,0.146129,49.247715,-123.230576,59.900002,LOCKED,5
1.80,0.29,0.472702,0.472702,1015.805481,-0.004815,0.147322,0.093294,49.247715,-123.230576,59.900002,LOCKED,5
1.80,0.29,0.477264,0.477264,1015.804932,-0.031494,0.102861,-0.000840,49.247715,-123.230576,59.900002,LOCKED,5
1.80,0.27,0.477264,0.477264,1015.804932,-0.033418,0.062764,-0.069363,49.247715,-123.230576,59.900002,LOCKED,5
1.80,0.27,0.498573,0.498573,1015.802368,0.010261,0.026284,-0.023447,49.247715,-123.230576,59.900002,LOCKED,5
1.80,0.28,0.498573,0.498573,1015.802368,0.039607,0.018070,0.046434,49.247715,-123.230576,59.900002,LOCKED,5
1.80,0.29,0.432625,0.432625,1015.810303,0.055488,0.020138,0.064376,49.247715,-123.230576,59.900002,LOCKED,5
1.80,0.29,0.432625,0.432625,1015.810303,0.054806,0.027018,0.028653,49.247715,-123.230576,59.900002,LOCKED,5
1.80,0.29,0.503647,0.503647,1015.801697,0.049139,0.013862,-0.017502,49.247715,-123.230576,59.900002,LOCKED,5
1.80,0.28,0.503647,0.503647,1015.801697,0.033573,-0.007843,-0.045822,49.247715,-123.230576,59.900002,LOCKED,5
1.80,0.27,0.534584,0.534584,1015.797974,0.039793,-0.038233,-0.031522,49.247715,-123.230576,59.900002,LOCKED,5
1.80,0.28,0.534584,0.534584,1015.797974,0.077896,-0.020046,0.039301,49.247715,-123.230576,59.900002,LOCKED,5
1.80,0.30,0.552849,0.552849,1015.795776,0.095933,-0.016712,0.095901,49.247715,-123.230576,59.900002,LOCKED,5
1.80,0.31,0.552849,0.552849,1015.795776,0.100834,0.033745,0.101205,49.247715,-123.230576,59.900002,LOCKED,5
1.80,0.32,0.512772,0.512772,1015.800598,0.093368,0.090061,0.031254,49.247715,-123.230576,55.400002,LOCKED,5
1.80,0.31,0.512772,0.512772,1015.800598,0.069134,0.100681,-0.023961,49.247715,-123.230576,55.400002,LOCKED,5
1.80,0.30,0.605606,0.605606,1015.789429,0.060571,0.069785,-0.050584,49.247715,-123.230576,55.400002,LOCKED,5
1.80,0.29,0.605606,0.605606,1015.789429,0.030022,0.026935,-0.067659,49.247715,-123.230576,55.400002,LOCKED,5
1.80,0.28,0.596985,0.596985,1015.790466,0.005212,0.002130,-0.076219,49.247715,-123.230576,55.400002,LOCKED,5
1.80,0.26,0.596985,0.596985,1015.790466,-0.028430,0.001805,-0.093343,49.247715,-123.230576,55.400002,LOCKED,5
1.80,0.24,0.602051,0.602051,1015.789856,-0.055152,0.001724,-0.096122,49.247715,-123.230576,55.400002,LOCKED,5
1.80,0.22,0.602051,0.602051,1015.789856,-0.056140,-0.024438,-0.105654,49.247715,-123.230576,55.400002,LOCKED,5
1.80,0.20,0.620316,0.620316,1015.787659,-0.053885,0.009352,-0.106948,49.247715,-123.230576,55.400002,LOCKED,5
1.80,0.19,0.620316,0.620316,1015.787659,-0.040874,0.012607,-0.058956,49.247715,-123.230576,55.400002,LOCKED,5
1.80,0.18,0.599014,0.599014,1015.790222,-0.042623,-0.022175,-0.052783,49.247715,-123.230576,55.400002,LOCKED,5
1.79,0.17,0.599014,0.599014,1015.790222,-0.075089,-0.034470,-0.068873,49.247715,-123.230576,55.400002,LOCKED,5
1.79,0.15,0.592926,0.592926,1015.799866,-0.087990,-0.015512,-0.103023,49.247715,-123.230576,55.400002,LOCKED,5
1.79,0.13,0.592926,0.592926,1015.790955,-0.089389,0.020589,-0.096341,49.247715,-123.230576,55.400002,LOCKED,5
1.79,0.12,0.552849,0.552849,1015.795776,-0.071782,0.007345,-0.056380,49.247715,-123.230576,55.400002,LOCKED,5
1.78,0.12,0.552849,0.552849,1015.795776,-0.069841,-0.016377,-0.019946,49.247715,-123.230576,55.400002,LOCKED,5
1.78,0.11,0.500092,0.500092,1015.795776,-0.089644,-0.027668,-0.031149,49.247715,-123.230576,55.400002,LOCKED,5
1.78,0.11,0.571617,0.571617,1015.793518,-0.110840,-0.036268,-0.028663,49.247715,-123.230576,55.400002,LOCKED,5
1.78,0.10,0.571617,0.571617,1015.793518,-0.106772,-0.045168,-0.011126,49.247715,-123.230576,55.400002,LOCKED,5
1.77,0.11,0.562996,0.562996,1015.794556,-0.105914,-0.029030,0.019856,49.247715,-123.230576,55.400002,LOCKED,5
1.77,0.12,0.562996,0.562996,1015.794556,-0.095237,-0.007731,0.051453,49.247715,-123.230576,55.400002,LOCKED,5
1.77,0.13,0.522919,0.522919,1015.799377,-0.091929,-0.015925,0.078284,49.247715,-123.230576,55.400002,LOCKED,5
1.76,0.15,0.522919,0.522919,1015.799377,-0.085634,-0.051615,0.112023,49.247715,-123.230576,55.400002,LOCKED,5
1.76,0.17,0.541183,0.541183,1015.797180,-0.072043,-0.050117,0.146830,49.247715,-123.230576,55.400002,LOCKED,5
1.76,0.20,0.541183,0.541183,1015.797180,-0.048421,-0.044491,0.173996,49.247723,-123.230576,55.400002,LOCKED,5
1.76,0.24,0.462555,0.462555,1015.806702,-0.009808,-0.039962,0.181909,49.247723,-123.230576,55.400002,LOCKED,5
1.76,0.27,0.462555,0.462555,1015.806702,-0.035425,-0.054348,0.215881,49.247723,-123.230576,55.400002,LOCKED,5
1.76,0.31,0.467628,0.467628,1015.806091,-0.053219,-0.095364,0.228996,49.247723,-123.230576,55.400002,LOCKED,5
1.76,0.35,0.467628,0.467628,1015.806091,-0.035488,-0.096501,0.208521,49.247723,-123.230576,55.400002,LOCKED,5
1.76,0.39,0.400665,0.400665,1015.814148,0.047288,-0.042619,0.206155,49.247723,-123.230576,55.400002,LOCKED,5
1.76,0.43,0.400665,0.400665,1015.814148,0.102701,0.005687,0.238965,49.247723,-123.230576,55.400002,LOCKED,5
1.76,0.46,0.448349,0.448349,1015.808411,0.070130,0.011351,0.193009,49.247723,-123.230576,55.400002,LOCKED,5
1.77,0.48,0.448349,0.448349,1015.808411,0.069448,0.051146,0.109878,49.247723,-123.230576,55.400002,LOCKED,5
1.77,0.50,0.347404,0.347404,1015.820557,0.087365,0.098466,0.083081,49.247723,-123.230576,55.400002,LOCKED,5
1.77,0.51,0.347404,0.347404,1015.820557,0.081448,0.036855,0.101731,49.247723,-123.230576,55.400002,LOCKED,5
1.78,0.54,0.250015,0.250015,1015.832336,0.034514,-0.075638,0.138314,49.247723,-123.230576,55.400002,LOCKED,5
1.78,0.55,0.250015,0.250015,1015.832336,0.023043,-0.071738,0.091474,49.247723,-123.230576,55.400002,LOCKED,5
1.78,0.55,0.250015,0.250015,1015.832336,0.046607,-0.007094,0.008423,49.247723,-123.230576,55.400002,LOCKED,5
1.79,0.54,0.250015,0.250015,1015.832336,0.061613,0.026906,-0.061972,49.247723,-123.230576,55.400002,LOCKED,5
1.79,0.52,0.333710,0.333710,1015.822205,0.060520,0.042070,-0.117766,49.247723,-123.230576,55.400002,LOCKED,5
1.79,0.50,0.333710,0.333710,1015.822205,0.011338,0.041415,-0.136178,49.247723,-123.230576,55.400002,LOCKED,5
1.80,0.47,0.461540,0.461540,1015.806824,-0.018555,0.018337,-0.120303,49.247723,-123.230576,55.400002,LOCKED,5
1.80,0.46,0.461540,0.461540,1015.806824,-0.032780,-0.011656,-0.085492,49.247723,-123.230576,55.400002,LOCKED,5
1.80,0.44,0.347404,0.347404,1015.820557,-0.040479,-0.023788,-0.095298,49.247723,-123.230576,55.400002,LOCKED,5
1.80,0.41,0.347404,0.347404,1015.820557,-0.057759,-0.014243,-0.147083,49.247723,-123.230576,55.400002,LOCKED,5
1.81,0.38,0.381897,0.381897,1015.816406,-0.074201,-0.003568,-0.187806,49.247723,-123.230576,55.400002,LOCKED,5
1.81,0.34,0.381897,0.381897,1015.816406,-0.101771,-0.023426,-0.214269,49.247723,-123.230576,55.400002,LOCKED,5
1.81,0.31,0.321533,0.321533,1015.823730,-0.124832,-0.046323,-0.185102,49.247723,-123.230576,55.400002,LOCKED,5
1.81,0.28,0.321533,0.321533,1015.823730,-0.098717,-0.058698,-0.142785,49.247726,-123.230576,55.400002,LOCKED,5
1.80,0.26,0.321533,0.321533,1015.823730,-0.081906,-0.057309,-0.087422,49.247726,-123.230576,55.400002,LOCKED,5
1.80,0.25,0.321533,0.321533,1015.823730,-0.072006,-0.054726,-0.057023,49.247726,-123.230576,55.400002,LOCKED,5
1.80,0.24,0.333710,0.333710,1015.822205,-0.068593,-0.030147,-0.052766,49.247726,-123.230576,55.400002,LOCKED,5
1.80,0.24,0.333710,0.333710,1015.822205,-0.030345,-0.033153,-0.022291,49.247726,-123.230576,55.400002,LOCKED,5
1.80,0.25,0.308350,0.308350,1015.825317,0.012409,-0.065091,0.047627,49.247726,-123.230576,55.400002,LOCKED,5
1.80,0.27,0.308350,0.308350,1015.825317,0.006056,-0.075500,0.113936,49.247726,-123.230576,55.400002,LOCKED,5
1.80,0.29,0.308350,0.308350,1015.825317,-0.008869,-0.043550,0.121655,49.247726,-123.230576,55.400002,LOCKED,5
1.79,0.30,0.308350,0.308350,1015.825317,-0.030887,-0.003902,0.081394,49.247726,-123.230576,55.400002,LOCKED,5
1.79,0.31,0.321533,0.321533,1015.823730,-0.027061,-0.026307,0.085537,49.247726,-123.230576,55.400002,LOCKED,5
1.79,0.32,0.321533,0.321533,1015.823730,0.011866,-0.105298,0.049690,49.247726,-123.230576,55.400002,LOCKED,5
1.79,0.33,0.321533,0.321533,1015.823730,0.089327,-0.085500,0.024428,49.247726,-123.230576,55.400002,LOCKED,5
1.79,0.34,0.321533,0.321533,1015.823730,0.216605,0.006657,0.080238,49.247726,-123.230576,55.400002,LOCKED,5
1.79,0.36,0.294655,0.294655,1015.826965,0.234279,0.013588,0.127823,49.247726,-123.230576,55.400002,LOCKED,5
1.79,0.38,0.294655,0.294655,1015.826965,0.146960,-0.015309,0.110140,49.247726,-123.230576,55.400002,LOCKED,5
1.80,0.38,0.280952,0.280952,1015.828613,0.073187,0.006924,0.021170,49.247726,-123.230576,55.400002,LOCKED,5
1.80,0.38,0.280952,0.280952,1015.828613,0.063351,0.020179,-0.047418,49.247726,-123.230576,55.400002,LOCKED,5
1.80,0.37,0.280952,0.280952,1015.828613,0.080863,-0.046091,-0.004846,49.247726,-123.230576,55.400002,LOCKED,5
1.80,0.38,0.280952,0.280952,1015.828613,0.146680,-0.095835,0.020084,49.247726,-123.230576,55.400002,LOCKED,5
1.80,0.38,0.333710,0.333710,1015.822205,0.192943,-0.056983,0.050400,49.247726,-123.230576,55.400002,LOCKED,5
1.80,0.40,0.333710,0.333710,1015.822205,0.222949,-0.057705,0.095634,49.247726,-123.230576,55.400002,LOCKED,5
1.80,0.43,0.321533,0.321533,1015.823730,0.208439,-0.074736,0.141946,49.247726,-123.230576,55.400002,LOCKED,5
1.80,0.45,0.321533,0.321533,1015.823730,0.149374,-0.050115,0.121527,49.247726,-123.230576,55.400002,LOCKED,5
1.80,0.45,0.321533,0.321533,1015.823730,0.099241,-0.039251,0.046417,49.247726,-123.230576,55.400002,LOCKED,5
1.81,0.45,0.321533,0.321533,1015.823730,0.073129,-0.038722,-0.013374,49.247726,-123.230576,54.000000,LOCKED,5
1.81,0.44,0.321533,0.321533,1015.823730,0.033022,-0.060543,-0.070812,49.247726,-123.230576,54.000000,LOCKED,5
1.81,0.42,0.321533,0.321533,1015.823730,-0.005144,-0.068410,-0.124644,49.247726,-123.230576,54.000000,LOCKED,5
1.81,0.39,0.407768,0.407768,1015.813293,-0.029404,-0.071787,-0.143317,49.247726,-123.230576,54.000000,LOCKED,5
1.81,0.36,0.407768,0.407768,1015.813293,-0.043297,-0.066425,-0.138463,49.247726,-123.230576,54.000000,LOCKED,5
1.81,0.34,0.321533,0.321533,1015.823730,-0.027256,-0.078065,-0.124576,49.247726,-123.230576,54.000000,LOCKED,5
1.81,0.32,0.321533,0.321533,1015.823730,-0.018082,-0.085501,-0.101470,49.247726,-123.230576,54.000000,LOCKED,5
1.81,0.31,0.333710,0.333710,1015.822205,-0.007266,-0.057819,-0.076467,49.247726,-123.230576,54.000000,LOCKED,5
1.81,0.30,0.333710,0.333710,1015.822205,0.004913,-0.031868,-0.059535,49.247726,-123.230576,54.000000,LOCKED,5
1.81,0.29,0.290085,0.290085,1015.827515,0.030371,0.008571,-0.019334,49.247726,-123.230576,54.000000,LOCKED,5
1.81,0.29,0.290085,0.290085,1015.827515,0.059489,0.032037,0.007781,49.247726,-123.230576,54.000000,LOCKED,5
1.81,0.30,0.315956,0.315956,1015.824402,0.086192,0.051774,0.021283,49.247726,-123.230576,54.000000,LOCKED,5
1.81,0.30,0.315956,0.315956,1015.824402,0.092374,0.041001,0.016943,49.247726,-123.230576,54.000000,LOCKED,5
1.81,0.30,0.427551,0.427551,1015.810913,0.080523,0.048473,0.034547,49.247726,-123.230576,54.000000,LOCKED,5
1.81,0.32,0.427551,0.427551,1015.810913,0.087695,0.089805,0.085027,49.247726,-123.230576,54.000000,LOCKED,5
1.81,0.35,0.414368,0.414368,1015.812500,0.140308,0.174219,0.162502,49.247726,-123.230576,54.000000,LOCKED,5
1.81,0.38,0.414368,0.414368,1015.812500,0.127812,0.185100,0.194957,49.247726,-123.230576,54.000000,LOCKED,5
1.81,0.41,0.546257,0.546257,1015.796570,0.126092,0.196045,0.187941,49.247726,-123.230576,54.000000,LOCKED,5
1.81,0.44,0.546257,0.546257,1015.796570,0.103945,0.197863,0.136867,49.247726,-123.230576,54.000000,LOCKED,5
1.82,0.46,0.518860,0.518860,1015.799866,0.098078,0.191848,0.130447,49.247726,-123.230576,54.000000,LOCKED,5
1.82,0.48,0.518860,0.518860,1015.799866,0.115970,0.197123,0.103987,49.247726,-123.230576,54.000000,LOCKED,5
1.82,0.49,0.493500,0.493500,1015.802979,0.059471,0.160207,0.065274,49.247726,-123.230576,54.000000,LOCKED,5
1.83,0.49,0.493500,0.493500,1015.802979,0.014720,0.112175,0.014664,49.247726,-123.230576,54.000000,LOCKED,5
1.83,0.48,0.466103,0.466103,1015.802979,-0.005310,0.133466,-0.085413,49.247726,-123.230576,54.000000,LOCKED,5
1.83,0.44,0.466103,0.466103,1015.806274,0.026520,0.128178,-0.171231,49.247726,-123.230576,54.000000,LOCKED,5
1.83,0.41,0.368713,0.368713,1015.809387,0.066512,0.119238,-0.172662,49.247726,-123.230576,54.000000,LOCKED,5
1.84,0.40,0.368713,0.368713,1015.817993,0.105421,0.096011,-0.080238,49.247726,-123.230576,54.000000,LOCKED,5
1.84,0.40,0.368713,0.368713,1015.817993,0.081354,0.035103,0.009217,49.247726,-123.230576,54.000000,LOCKED,5
1.84,0.40,0.407768,0.407768,1015.813293,0.045635,0.026923,0.007829,49.247726,-123.230576,54.000000,LOCKED,5
1.84,0.39,0.407768,0.407768,1015.813293,0.018958,0.047293,-0.067535,49.247726,-123.230576,54.000000,LOCKED,5
1.84,0.36,0.493500,0.493500,1015.802979,-0.029023,0.121090,-0.156179,49.247726,-123.230576,54.000000,LOCKED,5
1.84,0.33,0.493500,0.493500,1015.802979,-0.059712,0.139206,-0.177249,49.247726,-123.230576,54.000000,LOCKED,5
1.84,0.30,0.506180,0.506180,1015.801392,-0.034313,0.150396,-0.133607,49.247726,-123.230576,54.000000,LOCKED,5
1.84,0.29,0.506180,0.506180,1015.801392,0.011039,0.145915,-0.074296,49.247726,-123.230576,54.000000,LOCKED,5
1.84,0.28,0.407768,0.407768,1015.813293,0.049461,0.143703,-0.052584,49.247726,-123.230576,54.000000,LOCKED,5
1.84,0.26,0.407768,0.407768,1015.813293,0.065036,0.134848,-0.070867,49.247726,-123.230576,54.000000,LOCKED,5
1.84,0.25,0.466103,0.466103,1015.806274,0.025494,0.136191,-0.081061,49.247730,-123.230576,54.000000,LOCKED,5
1.84,0.23,0.466103,0.466103,1015.806274,-0.009118,0.140275,-0.083494,49.247730,-123.230576,54.000000,LOCKED,5
1.84,0.23,0.564514,0.564514,1015.794373,-0.032519,0.107372,-0.033529,49.247730,-123.230576,54.000000,LOCKED,5
1.83,0.23,0.564514,0.564514,1015.794373,-0.020098,0.070591,0.028193,49.247730,-123.230576,54.000000,LOCKED,5
1.83,0.25,0.479805,0.479805,1015.804626,0.007711,0.047533,0.081543,49.247730,-123.230576,54.000000,LOCKED,5
1.83,0.26,0.479805,0.479805,1015.804626,0.025335,0.045801,0.080858,49.247730,-123.230576,54.000000,LOCKED,5
1.83,0.27,0.537125,0.537125,1015.797668,0.024309,0.053615,0.042944,49.247730,-123.230576,54.000000,LOCKED,5
1.83,0.27,0.537125,0.537125,1015.797668,0.004108,0.035767,0.040495,49.247730,-123.230576,54.000000,LOCKED,5
1.83,0.28,0.502632,0.502632,1015.801819,-0.020115,-0.008603,0.045365,49.247730,-123.230576,54.000000,LOCKED,5
1.83,0.28,0.502632,0.502632,1015.801819,-0.025116,-0.007653,0.028065,49.247730,-123.230576,54.000000,LOCKED,5
1.83,0.29,0.463570,0.463570,1015.806580,-0.040492,0.001587,0.028401,49.247730,-123.230576,54.000000,LOCKED,5
1.83,0.30,0.463570,0.463570,1015.806580,-0.040465,-0.012519,0.042956,49.247730,-123.230576,54.000000,LOCKED,5
1.83,0.30,0.481323,0.481323,1015.804443,0.003638,0.049659,0.005245,49.247730,-123.230576,54.000000,LOCKED,5
1.83,0.30,0.481323,0.481323,1015.804443,0.032139,0.080376,0.012172,49.247730,-123.230576,54.000000,LOCKED,5
1.83,0.31,0.502121,0.502121,1015.801880,0.062695,0.039310,0.064031,49.247730,-123.230576,54.000000,LOCKED,5
1.83,0.33,0.502121,0.502121,1015.801880,0.107603,0.017900,0.131630,49.247730,-123.230576,54.000000,LOCKED,5
1.83,0.36,0.495018,0.495018,1015.802795,0.142452,0.014647,0.173293,49.247730,-123.230576,54.000000,LOCKED,5
1.83,0.39,0.495018,0.495018,1015.802795,0.134654,0.006331,0.159381,49.247730,-123.230576,54.000000,LOCKED,5
1.83,0.40,0.454437,0.454437,1015.807678,0.137347,0.038283,0.080039,49.247730,-123.230576,54.000000,LOCKED,5
1.84,0.40,0.454437,0.454437,1015.807678,0.152179,0.136601,0.002658,49.247730,-123.230576,54.000000,LOCKED,5
1.84,0.40,0.472702,0.472702,1015.805481,0.174648,0.184014,-0.017841,49.247730,-123.230576,54.000000,LOCKED,5
1.84,0.39,0.472702,0.472702,1015.805481,0.160363,0.079604,-0.060334,49.247730,-123.230576,54.000000,LOCKED,5
1.84,0.37,0.472702,0.472702,1015.805481,0.153266,0.034148,-0.102129,49.247730,-123.230576,54.000000,LOCKED,5
1.84,0.34,0.472702,0.472702,1015.805481,0.154461,0.131030,-0.140262,49.247730,-123.230576,54.000000,LOCKED,5
1.84,0.32,0.588356,0.588356,1015.791504,0.167150,0.138381,-0.124625,49.247730,-123.230576,54.000000,LOCKED,5
1.84,0.31,0.588356,0.588356,1015.791504,0.176764,0.070559,-0.080650,49.247730,-123.230576,54.000000,LOCKED,5
1.84,0.30,0.496033,0.496033,1015.802673,0.161995,0.008575,-0.030720,49.247730,-123.230576,54.000000,LOCKED,5
1.84,0.30,0.496033,0.496033,1015.802673,0.144403,0.001190,0.005257,49.247730,-123.230576,54.000000,LOCKED,5
1.84,0.30,0.411324,0.411324,1015.812866,0.150188,0.025647,0.007160,49.247730,-123.230576,54.000000,LOCKED,5
1.84,0.30,0.411324,0.411324,1015.812866,0.156317,0.042299,-0.001092,49.247730,-123.230576,54.000000,LOCKED,5
1.84,0.29,0.371758,0.371758,1015.817627,0.156865,0.066144,-0.033895,49.247730,-123.230576,54.000000,LOCKED,5
1.84,0.28,0.371758,0.371758,1015.817627,0.150638,0.129423,-0.060894,49.247730,-123.230576,54.000000,LOCKED,5
1.84,0.27,0.411324,0.411324,1015.812866,0.125623,0.139077,-0.059839,49.247730,-123.230576,54.000000,LOCKED,5
1.84,0.26,0.411324,0.411324,1015.812866,0.117836,0.105208,-0.045540,49.247730,-123.230576,54.000000,LOCKED,5
1.84,0.25,0.450890,0.450890,1015.808105,0.112036,0.114345,-0.030198,49.247730,-123.230576,54.000000,LOCKED,5
1.84,0.25,0.450890,0.450890,1015.808105,0.115732,0.116087,-0.018025,49.247730,-123.230576,54.000000,LOCKED,5
1.83,0.25,0.548790,0.548790,1015.796265,0.122246,0.084503,0.007255,49.247734,-123.230576,54.000000,LOCKED,5
1.83,0.26,0.548790,0.548790,1015.796265,0.121110,0.077461,0.026946,49.247734,-123.230576,54.000000,LOCKED,5
1.83,0.26,0.588356,0.588356,1015.791504,0.120475,0.059085,0.044277,49.247734,-123.230576,54.000000,LOCKED,5
1.83,0.27,0.588356,0.588356,1015.791504,0.090696,0.031219,0.054075,49.247734,-123.230576,54.000000,LOCKED,5
1.83,0.28,0.673584,0.673584,1015.781250,0.064252,0.022561,0.046599,49.247734,-123.230576,54.000000,LOCKED,5
1.83,0.29,0.673584,0.673584,1015.781250,0.025417,0.030173,0.036619,49.247734,-123.230576,54.000000,LOCKED,5
1.83,0.29,0.602051,0.602051,1015.789856,-0.012488,0.052320,0.027737,49.247734,-123.230576,54.000000,LOCKED,5
1.83,0.30,0.602051,0.602051,1015.789856,-0.014129,0.060485,0.046904,49.247734,-123.230576,54.000000,LOCKED,5
1.83,0.31,0.548790,0.548790,1015.796265,0.009308,0.041152,0.079852,49.247734,-123.230576,54.000000,LOCKED,5
1.84,0.33,0.548790,0.548790,1015.796265,0.032896,0.064738,0.099049,49.247734,-123.230576,54.000000,LOCKED,5
1.84,0.34,0.469147,0.469147,1015.805908,0.050111,0.083422,0.083449,49.247734,-123.230576,54.000000,LOCKED,5
1.84,0.35,0.469147,0.469147,1015.805908,0.038033,0.106586,0.032754,49.247734,-123.230576,54.000000,LOCKED,5
1.84,0.34,0.402695,0.402695,1015.813904,0.020270,0.113426,-0.023312,49.247734,-123.230576,54.000000,LOCKED,5
1.84,0.33,0.402695,0.402695,1015.813904,-0.002101,0.078450,-0.071952,49.247734,-123.230576,54.000000,LOCKED,5
1.84,0.31,0.389511,0.389511,1015.815491,-0.027710,0.025892,-0.107399,49.247734,-123.230576,54.000000,LOCKED,5
1.84,0.29,0.389511,0.389511,1015.815491,-0.027801,-0.025000,-0.106394,49.247734,-123.230576,54.000000,LOCKED,5
1.84,0.28,0.375816,0.375816,1015.817139,-0.020970,0.022720,-0.050576,49.247734,-123.230576,54.000000,LOCKED,5
1.83,0.28,0.375816,0.375816,1015.817139,-0.003099,0.038100,0.004614,49.247734,-123.230576,54.000000,LOCKED,5
1.83,0.29,0.309868,0.309868,1015.825134,0.019025,0.099579,0.051068,49.247734,-123.230576,54.000000,LOCKED,5
1.83,0.30,0.309868,0.309868,1015.825134,0.008443,0.146585,0.064529,49.247734,-123.230576,54.000000,LOCKED,5
1.83,0.31,0.270302,0.270302,1015.829895,-0.011095,0.135406,0.053404,49.247734,-123.230576,54.000000,LOCKED,5
1.83,0.32,0.270302,0.270302,1015.829895,-0.034023,0.092539,0.041074,49.247734,-123.230576,54.000000,LOCKED,5
1.83,0.32,0.283493,0.283493,1015.828308,-0.043967,0.070318,0.032621,49.247734,-123.230576,54.000000,LOCKED,5
1.83,0.32,0.283493,0.283493,1015.828308,-0.048714,0.043696,0.023813,49.247734,-123.230576,54.000000,LOCKED,5
1.83,0.32,0.336250,0.336250,1015.821899,-0.044500,0.068192,-0.003477,49.247734,-123.230576,54.000000,LOCKED,5
1.83,0.32,0.336250,0.336250,1015.821899,-0.030387,0.083256,-0.010548,49.247734,-123.230576,54.000000,LOCKED,5
1.83,0.32,0.415886,0.415886,1015.812317,-0.011231,0.084323,0.009328,49.247734,-123.230576,54.000000,LOCKED,5
1.83,0.33,0.415886,0.415886,1015.812317,-0.001868,0.078861,0.053102,49.247734,-123.230576,54.000000,LOCKED,5
1.83,0.34,0.429077,0.429077,1015.810730,-0.005225,0.055276,0.062382,49.247734,-123.230576,54.000000,LOCKED,5
1.83,0.34,0.429077,0.429077,1015.810730,0.000304,0.050236,0.027927,49.247734,-123.230576,54.000000,LOCKED,5
1.83,0.34,0.429077,0.429077,1015.810730,-0.012355,0.055549,-0.035030,49.247734,-123.230576,54.000000,LOCKED,5
1.83,0.33,0.429077,0.429077,1015.810730,-0.016951,0.052486,-0.047901,49.247734,-123.230576,54.000000,LOCKED,5
1.83,0.32,0.429077,0.429077,1015.810730,-0.007634,0.050726,-0.037206,49.247734,-123.230576,54.000000,LOCKED,5
1.83,0.32,0.442772,0.442772,1015.809082,-0.007128,0.035263,-0.027954,49.247734,-123.230576,54.000000,LOCKED,5
1.83,0.31,0.442772,0.442772,1015.809082,-0.007374,0.054461,-0.031207,49.247734,-123.230576,54.000000,LOCKED,5
1.83,0.31,0.483353,0.483353,1015.804199,-0.012087,0.068678,-0.013353,49.247734,-123.230576,54.000000,LOCKED,5
1.83,0.31,0.483353,0.483353,1015.804199,0.004104,0.067339,0.006177,49.247734,-123.230576,54.000000,LOCKED,5
1.83,0.31,0.469147,0.469147,1015.805908,0.001997,0.034231,0.015879,49.247734,-123.230576,54.000000,LOCKED,5
1.83,0.31,0.469147,0.469147,1015.805908,-0.002440,0.013576,-0.004224,49.247734,-123.230576,54.000000,LOCKED,5
1.83,0.30,0.455963,0.455963,1015.807495,-0.014336,0.025029,-0.025815,49.247734,-123.230576,54.000000,LOCKED,5
1.83,0.30,0.455963,0.455963,1015.807495,-0.020876,0.039461,-0.026502,49.247734,-123.230576,54.000000,LOCKED,5
1.83,0.30,0.371758,0.371758,1015.817627,-0.011159,0.039118,-0.000548,49.247734,-123.230576,54.000000,LOCKED,5
1.83,0.30,0.371758,0.371758,1015.817627,0.008127,0.028964,0.008054,49.247734,-123.230576,54.000000,LOCKED,5
1.83,0.30,0.313423,0.313423,1015.824707,0.008166,0.041651,0.011654,49.247734,-123.230576,54.000000,LOCKED,5
1.83,0.30,0.313423,0.313423,1015.824707,0.007457,0.035723,0.014918,49.247734,-123.230576,54.000000,LOCKED,5
1.83,0.30,0.353493,0.353493,1015.819824,0.011155,0.039474,0.020704,49.247734,-123.230576,54.000000,LOCKED,5
1.83,0.31,0.353493,0.353493,1015.819824,0.009173,0.035358,0.037954,49.247734,-123.230576,54.000000,LOCKED,5
1.83,0.32,0.353493,0.353493,1015.819824,0.010693,0.022622,0.038906,49.247734,-123.230576,54.000000,LOCKED,5
1.83,0.32,0.353493,0.353493,1015.819824,0.007264,0.012447,0.018873,49.247734,-123.230576,54.000000,LOCKED,5
1.83,0.32,0.437698,0.437698,1015.809692,0.002310,0.015533,-0.009840,49.247734,-123.230576,54.000000,LOCKED,5
1.83,0.31,0.437698,0.437698,1015.809692,-0.001769,0.025165,-0.018951,49.247734,-123.230576,54.000000,LOCKED,5
1.83,0.31,0.366173,0.366173,1015.818298,-0.006086,0.014003,-0.011711,49.247734,-123.230576,54.000000,LOCKED,5
1.83,0.31,0.366173,0.366173,1015.818298,0.006133,-0.011516,0.017448,49.247734,-123.230576,54.000000,LOCKED,5
1.82,0.31,0.308350,0.308350,1015.825317,0.002524,0.004039,0.015668,49.247734,-123.230576,54.000000,LOCKED,5
1.82,0.32,0.308350,0.308350,1015.825317,0.000551,0.022694,0.010199,49.247734,-123.230576,54.000000,LOCKED,5
1.82,0.32,0.334724,0.334724,1015.822083,0.001000,0.017488,0.022743,49.247734,-123.230576,54.000000,LOCKED,5
1.82,0.32,0.334724,0.334724,1015.822083,-0.006891,0.031537,0.011075,49.247734,-123.230576,54.000000,LOCKED,5
1.82,0.32,0.347916,0.347916,1015.820496,-0.005410,0.034933,-0.000902,49.247734,-123.230576,54.000000,LOCKED,5
1.82,0.32,0.347916,0.347916,1015.820496,-0.000524,0.041400,-0.013017,49.247734,-123.230576,54.000000,LOCKED,5
1.82,0.31,0.361099,0.361099,1015.818909,-0.002598,0.046496,-0.016451,49.247734,-123.230576,54.000000,LOCKED,5
1.82,0.31,0.361099,0.361099,1015.818909,-0.006449,0.030445,-0.002667,49.247746,-123.230591,54.000000,LOCKED,5
1.82,0.31,0.374290,0.374290,1015.817322,-0.013568,0.020727,0.003361,49.247746,-123.230591,54.000000,LOCKED,5
1.82,0.31,0.374290,0.374290,1015.817322,-0.012238,0.014573,-0.003692,49.247746,-123.230591,54.000000,LOCKED,5
1.82,0.31,0.361099,0.361099,1015.818909,-0.017165,0.014853,-0.000499,49.247746,-123.230591,54.000000,LOCKED,5
1.82,0.31,0.361099,0.361099,1015.818909,-0.016024,0.027622,-0.000943,49.247746,-123.230591,54.000000,LOCKED,5
1.82,0.31,0.374290,0.374290,1015.817322,-0.022065,0.028763,0.007263,49.247746,-123.230591,54.000000,LOCKED,5
1.82,0.30,0.374290,0.374290,1015.817322,-0.021792,0.018248,-0.022501,49.247746,-123.230591,54.000000,LOCKED,5
1.82,0.30,0.387985,0.387985,1015.815674,-0.014820,0.041222,-0.030169,49.247746,-123.230591,54.000000,LOCKED,5
1.82,0.30,0.387985,0.387985,1015.815674,-0.016907,0.022397,0.002920,49.247746,-123.230591,54.000000,LOCKED,5
1.82,0.30,0.432625,0.432625,1015.810303,-0.017700,0.033968,0.041227,49.247746,-123.230591,54.000000,LOCKED,5
1.82,0.31,0.432625,0.432625,1015.810303,-0.002972,0.032188,0.041793,49.247746,-123.230591,54.000000,LOCKED,5
1.82,0.31,0.405739,0.405739,1015.813538,-0.019502,0.032003,0.012272,49.247746,-123.230591,54.000000,LOCKED,5
1.82,0.31,0.405739,0.405739,1015.813538,-0.028702,0.023546,-0.009558,49.247746,-123.230591,54.000000,LOCKED,5
1.82,0.31,0.446320,0.446320,1015.808655,-0.024196,0.029332,-0.001810,49.247746,-123.230591,54.000000,LOCKED,5
1.82,0.31,0.446320,0.446320,1015.808655,-0.019423,0.032994,0.025597,49.247746,-123.230591,54.000000,LOCKED,5
1.82,0.32,0.419441,0.419441,1015.811890,-0.006484,0.031261,0.038017,49.247746,-123.230591,54.000000,LOCKED,5
1.82,0.32,0.419441,0.419441,1015.811890,-0.012217,0.030132,0.026959,49.247746,-123.230591,54.000000,LOCKED,5
1.82,0.32,0.353493,0.353493,1015.819824,-0.019896,0.035619,0.005359,49.247746,-123.230591,54.000000,LOCKED,5
1.82,0.32,0.353493,0.353493,1015.819824,-0.024061,0.043028,-0.000541,49.247746,-123.230591,54.000000,LOCKED,5
1.82,0.32,0.300735,0.300735,1015.826233,-0.030139,0.038034,-0.012416,49.247746,-123.230591,54.000000,LOCKED,5
1.82,0.32,0.300735,0.300735,1015.826233,-0.019709,0.034411,-0.001714,49.247746,-123.230591,54.000000,LOCKED,5
1.82,0.32,0.215523,0.215523,1015.836487,-0.011936,0.021953,0.017753,49.247746,-123.230591,54.000000,LOCKED,5
1.82,0.33,0.215523,0.215523,1015.836487,-0.011710,0.008081,0.035424,49.247746,-123.230591,54.000000,LOCKED,5
1.82,0.33,0.220085,0.220085,1015.835938,-0.022051,0.020600,0.024669,49.247746,-123.230591,54.000000,LOCKED,5
1.81,0.33,0.220085,0.220085,1015.835938,-0.025260,0.036209,-0.000801,49.247746,-123.230591,54.000000,LOCKED,5
1.81,0.33,0.109505,0.109505,1015.849304,-0.030668,0.023122,-0.000066,49.247746,-123.230591,54.000000,LOCKED,5
1.81,0.33,0.109505,0.109505,1015.849304,-0.026872,0.028311,0.004981,49.247746,-123.230591,54.000000,LOCKED,5
1.81,0.33,0.153633,0.153633,1015.843933,-0.024865,0.018707,0.011235,49.247746,-123.230591,54.000000,LOCKED,5
1.81,0.33,0.153633,0.153633,1015.843933,-0.028935,0.034606,-0.001506,49.247746,-123.230591,54.000000,LOCKED,5
1.81,0.33,0.114067,0.114067,1015.848755,-0.042894,0.043998,-0.007105,49.247746,-123.230591,54.000000,LOCKED,5
1.81,0.32,0.114067,0.114067,1015.848755,-0.037889,0.059367,-0.012927,49.247746,-123.230591,54.000000,LOCKED,5
1.81,0.32,0.114067,0.114067,1015.848755,-0.027191,0.042197,-0.002269,49.247746,-123.230591,54.000000,LOCKED,5
1.81,0.33,0.114067,0.114067,1015.848755,-0.014744,0.063941,0.018094,49.247746,-123.230591,54.000000,LOCKED,5
1.81,0.33,0.159218,0.159218,1015.843262,-0.011352,0.038792,0.037897,49.247746,-123.230591,54.000000,LOCKED,5
1.81,0.34,0.159218,0.159218,1015.843262,-0.013048,0.048812,0.036081,49.247746,-123.230591,54.000000,LOCKED,5
1.80,0.33,0.074501,0.074501,1015.853516,-0.026678,0.050640,-0.010915,49.247746,-123.230591,54.000000,LOCKED,5
1.80,0.33,0.074501,0.074501,1015.853516,-0.026911,0.050762,-0.021782,49.247746,-123.230591,54.000000,LOCKED,5
1.80,0.33,0.048126,0.048126,1015.856689,-0.031552,0.024528,-0.007926,49.247746,-123.230591,54.000000,LOCKED,5
1.80,0.33,0.048126,0.048126,1015.856689,-0.020737,0.035930,0.020415,49.247746,-123.230591,54.000000,LOCKED,5
1.80,0.34,0.048126,0.048126,1015.856689,-0.017680,0.013255,0.050514,49.247746,-123.230591,54.000000,LOCKED,5
1.80,0.34,0.048126,0.048126,1015.856689,-0.008512,0.024893,0.036354,49.247746,-123.230591,54.000000,LOCKED,5
1.80,0.35,0.106461,0.106461,1015.849670,-0.004135,0.026084,0.011074,49.247746,-123.230591,54.000000,LOCKED,5
1.80,0.34,0.106461,0.106461,1015.849670,-0.012067,0.028732,-0.003240,49.247746,-123.230591,54.000000,LOCKED,5
1.80,0.34,0.150589,0.150589,1015.844299,-0.008757,0.031458,-0.002229,49.247746,-123.230591,54.000000,LOCKED,5
1.80,0.34,0.150589,0.150589,1015.844299,-0.003972,0.028820,0.011656,49.247746,-123.230591,54.000000,LOCKED,5
1.80,0.34,0.124718,0.124718,1015.847473,-0.019847,0.025124,0.008913,49.247746,-123.230591,54.000000,LOCKED,5
1.79,0.34,0.124718,0.124718,1015.847473,-0.024602,0.036568,-0.010403,49.247746,-123.230591,54.000000,LOCKED,5
1.79,0.34,0.097839,0.097839,1015.850708,-0.015655,0.041908,-0.023698,49.247746,-123.230591,54.000000,LOCKED,5
1.79,0.33,0.097839,0.097839,1015.850708,-0.017945,0.054066,-0.023233,49.247746,-123.230591,54.000000,LOCKED,5
1.79,0.33,0.195229,0.195229,1015.838928,-0.015623,0.045817,-0.009675,49.247746,-123.230591,54.000000,LOCKED,5
1.79,0.33,0.195229,0.195229,1015.838928,-0.015816,0.039514,0.008233,49.247746,-123.230591,54.000000,LOCKED,5
1.79,0.33,0.182549,0.182549,1015.838928,-0.029529,0.054384,-0.021902,49.247746,-123.230591,54.000000,LOCKED,5
1.79,0.32,0.182549,0.182549,1015.840454,-0.027822,0.056603,-0.023258,49.247746,-123.230591,54.000000,LOCKED,5
1.79,0.32,0.182549,0.182549,1015.840454,-0.018814,0.052722,-0.013738,49.247746,-123.230591,54.000000,LOCKED,5
1.79,0.32,0.182549,0.182549,1015.840454,-0.004062,0.042910,0.016158,49.247746,-123.230591,54.000000,LOCKED,5
1.79,0.32,0.182549,0.182549,1015.840454,0.001141,0.021691,0.018531,49.247746,-123.230591,54.000000,LOCKED,5
1.79,0.32,0.164284,0.164284,1015.842651,-0.010008,0.026340,0.011509,49.247746,-123.230591,54.000000,LOCKED,5
1.79,0.32,0.164284,0.164284,1015.842651,-0.009824,0.020849,0.005429,49.247746,-123.230591,54.000000,LOCKED,5
1.79,0.32,0.164284,0.164284,1015.842651,-0.008094,0.031322,-0.004564,49.247746,-123.230591,54.000000,LOCKED,5
1.78,0.32,0.164284,0.164284,1015.842651,-0.015475,0.030173,-0.005444,49.247746,-123.230591,54.000000,LOCKED,5
1.78,0.32,0.248489,0.248489,1015.832520,-0.022641,0.028137,0.002321,49.247746,-123.230591,54.000000,LOCKED,5
1.78,0.32,0.248489,0.248489,1015.832520,-0.015020,0.040192,0.016325,49.247746,-123.230591,54.000000,LOCKED,5
1.78,0.32,0.261681,0.261681,1015.830933,-0.016074,0.052784,0.008278,49.247746,-123.230591,54.000000,LOCKED,5
1.78,0.33,0.261681,0.261681,1015.830933,-0.003529,0.030274,0.036719,49.247746,-123.230591,54.000000,LOCKED,5
1.78,0.33,0.301750,0.301750,1015.826111,-0.005859,0.038292,0.026450,49.247746,-123.230591,54.000000,LOCKED,5
1.78,0.34,0.301750,0.301750,1015.826111,-0.016356,0.046708,0.019370,49.247746,-123.230591,54.000000,LOCKED,5
1.78,0.34,0.328133,0.328133,1015.822876,-0.017711,0.062416,0.020194,49.247746,-123.230591,54.000000,LOCKED,5
1.78,0.34,0.328133,0.328133,1015.822876,-0.023895,0.052913,0.013662,49.247746,-123.230591,54.000000,LOCKED,5
1.78,0.34,0.314941,0.314941,1015.824524,-0.014955,0.043279,0.020563,49.247746,-123.230591,54.000000,LOCKED,5
1.78,0.35,0.314941,0.314941,1015.824524,-0.004248,0.029361,0.033597,49.247746,-123.230591,54.000000,LOCKED,5
1.78,0.35,0.402695,0.402695,1015.813904,-0.008854,0.025284,0.018661,49.247746,-123.230591,54.000000,LOCKED,5
1.78,0.35,0.402695,0.402695,1015.813904,-0.011420,0.037985,-0.001594,49.247746,-123.230591,54.000000,LOCKED,5
1.79,0.35,0.402695,0.402695,1015.813904,-0.019267,0.054920,-0.027619,49.247749,-123.230591,54.000000,LOCKED,5
1.79,0.34,0.402695,0.402695,1015.813904,-0.017241,0.050544,-0.017636,49.247749,-123.230591,54.000000,LOCKED,5
1.79,0.34,0.375305,0.375305,1015.817200,-0.008534,0.038863,-0.000753,49.247749,-123.230591,54.000000,LOCKED,5
1.79,0.34,0.375305,0.375305,1015.817200,-0.006029,0.042031,0.026200,49.247749,-123.230591,54.000000,LOCKED,5
1.79,0.35,0.335739,0.335739,1015.821960,-0.004408,0.037855,0.038626,49.247749,-123.230591,54.000000,LOCKED,5
1.79,0.36,0.335739,0.335739,1015.821960,0.000058,0.044094,0.051831,49.247749,-123.230591,54.000000,LOCKED,5
1.79,0.37,0.420959,0.420959,1015.811707,0.000513,0.047234,0.057872,49.247749,-123.230591,54.000000,LOCKED,5
1.79,0.38,0.420959,0.420959,1015.811707,0.008053,0.037352,0.056689,49.247749,-123.230591,54.000000,LOCKED,5
1.79,0.39,0.367699,0.367699,1015.818115,-0.002684,0.014903,0.046173,49.247749,-123.230591,54.000000,LOCKED,5
1.79,0.39,0.367699,0.367699,1015.818115,0.000613,0.023814,0.045114,49.247749,-123.230591,54.000000,LOCKED,5
1.79,0.40,0.301247,0.301247,1015.826172,-0.006783,0.036544,0.030662,49.247749,-123.230591,54.000000,LOCKED,5
1.79,0.40,0.301247,0.301247,1015.826172,-0.005997,0.054322,0.035350,49.247749,-123.230591,54.000000,LOCKED,5
1.80,0.41,0.385956,0.385956,1015.815918,-0.006008,0.048294,0.041921,49.247749,-123.230591,54.000000,LOCKED,5
1.80,0.42,0.385956,0.385956,1015.815918,-0.012291,0.017657,0.036477,49.247749,-123.230591,54.000000,LOCKED,5
1.80,0.42,0.314941,0.314941,1015.824524,-0.016561,0.017222,0.007350,49.247749,-123.230591,54.000000,LOCKED,5
1.80,0.42,0.314941,0.314941,1015.824524,-0.013232,0.007998,-0.007378,49.247749,-123.230591,54.000000,LOCKED,5
1.80,0.41,0.398643,0.398643,1015.814392,-0.016648,0.020417,-0.014255,49.247749,-123.230591,54.000000,LOCKED,5
1.80,0.41,0.398643,0.398643,1015.814392,-0.030151,0.034768,-0.032795,49.247749,-123.230591,54.000000,LOCKED,5
1.81,0.40,0.398643,0.398643,1015.814392,-0.038993,0.032573,-0.043254,49.247749,-123.230591,54.000000,LOCKED,5
1.81,0.39,0.398643,0.398643,1015.814392,-0.035847,0.032715,-0.056735,49.247749,-123.230591,54.000000,LOCKED,5
1.81,0.37,0.327118,0.327118,1015.822998,-0.042900,0.024740,-0.071708,49.247749,-123.230591,54.000000,LOCKED,5
1.81,0.36,0.327118,0.327118,1015.822998,-0.033394,0.032119,-0.090294,49.247749,-123.230591,54.000000,LOCKED,5
1.81,0.34,0.340302,0.340302,1015.821411,-0.026603,0.044245,-0.071470,49.247749,-123.230591,54.000000,LOCKED,5
1.81,0.33,0.340302,0.340302,1015.821411,-0.023190,0.042968,-0.038332,49.247749,-123.230591,54.000000,LOCKED,5
1.81,0.33,0.243416,0.243416,1015.833130,-0.017461,0.046795,-0.007318,49.247749,-123.230591,54.000000,LOCKED,5
1.81,0.33,0.243416,0.243416,1015.833130,-0.012985,0.047939,0.007375,49.247749,-123.230591,54.000000,LOCKED,5
1.81,0.33,0.314941,0.314941,1015.824524,-0.022774,0.037070,-0.014904,49.247749,-123.230591,54.000000,LOCKED,5
1.81,0.33,0.314941,0.314941,1015.824524,-0.017534,0.022528,-0.022656,49.247749,-123.230591,54.000000,LOCKED,5
1.81,0.32,0.398643,0.398643,1015.814392,-0.023701,0.031374,-0.007471,49.247749,-123.230591,54.000000,LOCKED,5
1.81,0.32,0.398643,0.398643,1015.814392,-0.005508,0.022787,0.010518,49.247749,-123.230591,54.000000,LOCKED,5
1.81,0.33,0.483864,0.483864,1015.804138,-0.015590,0.014505,0.017480,49.247749,-123.230591,54.000000,LOCKED,5
1.81,0.33,0.483864,0.483864,1015.804138,-0.009588,0.033974,0.008019,49.247749,-123.230591,54.000000,LOCKED,5
1.81,0.33,0.411827,0.411827,1015.812805,-0.017787,0.042750,0.018697,49.247749,-123.230591,54.000000,LOCKED,5
1.81,0.34,0.411827,0.411827,1015.812805,-0.008604,0.040220,0.032377,49.247749,-123.230591,54.000000,LOCKED,5
1.81,0.34,0.411827,0.411827,1015.812805,-0.009568,0.037408,0.015813,49.247749,-123.230591,54.000000,LOCKED,5
1.81,0.34,0.411827,0.411827,1015.812805,-0.017359,0.033845,0.004595,49.247749,-123.230591,54.000000,LOCKED,5
1.81,0.34,0.367699,0.367699,1015.818115,-0.012599,0.032521,-0.002306,49.247753,-123.230591,54.000000,LOCKED,5
1.81,0.34,0.367699,0.367699,1015.818115,-0.021012,0.046883,-0.000429,49.247753,-123.230591,54.000000,LOCKED,5
1.81,0.34,0.483864,0.483864,1015.804138,-0.016339,0.031984,0.016597,49.247753,-123.230591,54.000000,LOCKED,5
1.81,0.34,0.483864,0.483864,1015.804138,-0.014745,0.036725,0.021843,49.247753,-123.230591,54.000000,LOCKED,5
1.81,0.34,0.509727,0.509727,1015.800964,-0.007727,0.016475,0.006391,49.247753,-123.230591,54.000000,LOCKED,5
1.81,0.34,0.509727,0.509727,1015.800964,-0.013217,0.014364,-0.006368,49.247753,-123.230591,54.000000,LOCKED,5
1.81,0.34,0.568573,0.568573,1015.793884,-0.015089,0.022740,-0.017128,49.247753,-123.230591,54.000000,LOCKED,5
1.82,0.34,0.568573,0.568573,1015.793884,-0.009785,0.033530,-0.001043,49.247753,-123.230591,54.000000,LOCKED,5
1.82,0.34,0.527992,0.527992,1015.798767,-0.008941,0.030214,0.018246,49.247753,-123.230591,54.000000,LOCKED,5
1.82,0.34,0.527992,0.527992,1015.798767,-0.016010,0.029343,0.023552,49.247753,-123.230591,54.000000,LOCKED,5
1.82,0.34,0.527992,0.527992,1015.798767,-0.012576,0.027264,0.004416,49.247753,-123.230591,54.000000,LOCKED,5
1.82,0.34,0.527992,0.527992,1015.798767,-0.013430,0.025957,0.003260,49.247753,-123.230591,54.000000,LOCKED,5
1.82,0.34,0.553864,0.553864,1015.795654,-0.001426,0.017517,0.008358,49.247753,-123.230591,54.000000,LOCKED,5
1.82,0.34,0.553864,0.553864,1015.795654,-0.000990,0.017640,0.010230,49.247753,-123.230591,54.000000,LOCKED,5
1.82,0.35,0.444290,0.444290,1015.808899,0.001335,0.012293,0.007868,49.247753,-123.230591,54.000000,LOCKED,5
1.82,0.34,0.444290,0.444290,1015.808899,0.005039,0.001147,-0.012316,49.247753,-123.230591,54.000000,LOCKED,5
1.82,0.34,0.501617,0.501617,1015.802002,0.005592,-0.000507,-0.014511,49.247753,-123.230591,54.000000,LOCKED,5
1.82,0.34,0.501617,0.501617,1015.802002,0.020103,0.019408,-0.010490,49.247753,-123.230591,54.000000,LOCKED,5
1.82,0.34,0.488426,0.488426,1015.803589,0.047481,0.013505,0.021123,49.247753,-123.230591,54.000000,LOCKED,5
1.82,0.35,0.488426,0.488426,1015.803589,0.079744,0.031571,0.038421,49.247753,-123.230591,54.000000,LOCKED,5
1.83,0.35,0.501617,0.501617,1015.802002,0.095979,0.015036,0.042117,49.247753,-123.230591,54.000000,LOCKED,5
1.83,0.36,0.501617,0.501617,1015.802002,0.101486,-0.025615,0.015394,49.247753,-123.230591,54.000000,LOCKED,5
1.83,0.35,0.501617,0.501617,1015.802002,0.093546,-0.044162,-0.006561,49.247753,-123.230591,54.000000,LOCKED,5
1.83,0.35,0.501617,0.501617,1015.802002,0.097392,-0.072509,-0.011148,49.247753,-123.230591,54.000000,LOCKED,5
1.83,0.35,0.488426,0.488426,1015.803589,0.090260,-0.092349,-0.023897,49.247753,-123.230591,51.900002,LOCKED,5
1.83,0.34,0.488426,0.488426,1015.803589,0.068539,-0.053991,-0.023053,49.247753,-123.230591,51.900002,LOCKED,5
1.83,0.33,0.501617,0.501617,1015.803589,0.076674,-0.026179,-0.051667,49.247753,-123.230591,51.900002,LOCKED,5
1.83,0.32,0.501617,0.501617,1015.802002,0.094513,-0.042592,-0.068545,49.247753,-123.230591,51.900002,LOCKED,5
1.83,0.31,0.488426,0.488426,1015.802002,0.110279,-0.050402,-0.058040,49.247753,-123.230591,51.900002,LOCKED,5
1.83,0.29,0.488426,0.488426,1015.803589,0.118717,-0.058266,-0.069825,49.247753,-123.230591,51.900002,LOCKED,5
1.83,0.28,0.488426,0.488426,1015.803589,0.112245,-0.074729,-0.074862,49.247753,-123.230591,51.900002,LOCKED,5
1.83,0.27,0.421974,0.421974,1015.811584,0.111034,-0.101878,-0.065341,49.247753,-123.230591,51.900002,LOCKED,5
1.83,0.26,0.421974,0.421974,1015.811584,0.098851,-0.101576,-0.056630,49.247753,-123.230591,51.900002,LOCKED,5
1.83,0.25,0.470161,0.470161,1015.805786,0.094576,-0.100828,-0.036425,49.247753,-123.230591,51.900002,LOCKED,5
1.83,0.25,0.470161,0.470161,1015.805786,0.094887,-0.089076,-0.015183,49.247753,-123.230591,51.900002,LOCKED,5
1.83,0.25,0.483353,0.483353,1015.804199,0.086525,-0.071387,0.018540,49.247753,-123.230591,51.900002,LOCKED,5
1.83,0.26,0.483353,0.483353,1015.804199,0.084684,-0.060412,0.036579,49.247753,-123.230591,51.900002,LOCKED,5
1.82,0.26,0.514297,0.514297,1015.800415,0.079491,-0.051628,0.029719,49.247753,-123.230591,51.900002,LOCKED,5
1.82,0.26,0.514297,0.514297,1015.800415,0.076120,-0.048316,0.014797,49.247753,-123.230591,51.900002,LOCKED,5
1.82,0.26,0.514297,0.514297,1015.800415,0.067809,-0.043553,0.011474,49.247753,-123.230591,51.900002,LOCKED,5
1.82,0.26,0.514297,0.514297,1015.800415,0.053116,-0.049784,0.002761,49.247753,-123.230591,51.900002,LOCKED,5
1.82,0.27,0.461540,0.461540,1015.806824,0.046234,-0.040130,0.012228,49.247753,-123.230591,51.900002,LOCKED,5
1.82,0.27,0.461540,0.461540,1015.806824,0.047866,-0.025143,0.031178,49.247753,-123.230591,51.900002,LOCKED,5
1.82,0.28,0.453423,0.453423,1015.807800,0.060571,-0.045074,0.037813,49.247753,-123.230591,51.900002,LOCKED,5
1.82,0.28,0.453423,0.453423,1015.807800,0.070975,-0.048588,0.045982,49.247753,-123.230591,51.900002,LOCKED,5
1.82,0.29,0.439728,0.439728,1015.809448,0.058707,-0.050678,0.036452,49.247753,-123.230591,51.900002,LOCKED,5
1.82,0.29,0.439728,0.439728,1015.809448,0.054299,-0.053832,0.029691,49.247753,-123.230591,51.900002,LOCKED,5
1.82,0.30,0.386467,0.386467,1015.815857,0.043603,-0.045089,0.034196,49.247753,-123.230591,51.900002,LOCKED,5
1.82,0.31,0.386467,0.386467,1015.815857,0.043250,-0.030404,0.051153,49.247753,-123.230591,51.900002,LOCKED,5
1.82,0.32,0.444801,0.444801,1015.808838,0.054680,-0.037847,0.062128,49.247753,-123.230591,51.900002,LOCKED,5
1.82,0.33,0.444801,0.444801,1015.808838,0.063314,-0.035760,0.062927,49.247753,-123.230591,51.900002,LOCKED,5
1.82,0.34,0.502121,0.502121,1015.801880,0.042285,-0.021800,0.046912,49.247753,-123.230591,51.900002,LOCKED,5
1.82,0.34,0.502121,0.502121,1015.801880,0.036420,-0.023827,0.044367,49.247753,-123.230591,51.900002,LOCKED,5
1.82,0.35,0.550316,0.550316,1015.796082,0.033714,-0.006641,0.044770,49.247753,-123.230591,51.900002,LOCKED,5
1.82,0.36,0.550316,0.550316,1015.796082,0.016716,0.013834,0.041334,49.247753,-123.230591,51.900002,LOCKED,5
1.82,0.37,0.417412,0.417412,1015.812134,0.005138,0.024133,0.047081,49.247753,-123.230591,51.900002,LOCKED,5
1.82,0.37,0.417412,0.417412,1015.812134,0.010557,-0.011961,0.051443,49.247753,-123.230591,51.900002,LOCKED,5
1.82,0.38,0.285011,0.285011,1015.828125,-0.007149,-0.029428,0.029277,49.247753,-123.230591,51.900002,LOCKED,5
1.82,0.38,0.285011,0.285011,1015.828125,-0.027005,-0.016913,-0.009999,49.247753,-123.230591,51.900002,LOCKED,5
1.83,0.37,0.264214,0.264214,1015.830627,-0.006193,0.009112,-0.009673,49.247753,-123.230591,51.900002,LOCKED,5
1.83,0.38,0.264214,0.264214,1015.830627,0.012418,0.037770,0.025972,49.247761,-123.230598,51.900002,LOCKED,5
1.83,0.38,0.228706,0.228706,1015.834900,-0.018984,0.076230,0.042089,49.247761,-123.230598,51.900002,LOCKED,5
1.83,0.39,0.228706,0.228706,1015.834900,-0.048505,0.095528,0.041659,49.247761,-123.230598,51.900002,LOCKED,5
1.83,0.40,0.206894,0.206894,1015.837524,-0.033905,0.121543,0.054785,49.247761,-123.230598,51.900002,LOCKED,5
1.83,0.42,0.206894,0.206894,1015.837524,-0.010040,0.129497,0.098633,49.247761,-123.230598,51.900002,LOCKED,5
1.83,0.45,0.132332,0.132332,1015.846558,0.007458,0.086526,0.165748,49.247761,-123.230598,51.900002,LOCKED,5
1.83,0.49,0.132332,0.132332,1015.846558,0.032040,0.017014,0.222265,49.247761,-123.230598,51.900002,LOCKED,5
1.83,0.52,0.060806,0.060806,1015.855164,0.019451,-0.027848,0.194675,49.247761,-123.230598,51.900002,LOCKED,5
1.83,0.53,0.060806,0.060806,1015.855164,-0.025188,-0.026770,0.086449,49.247761,-123.230598,51.900002,LOCKED,5
1.84,0.53,-0.018829,-0.018829,1015.864746,-0.070645,-0.006886,-0.032750,49.247761,-123.230598,51.900002,LOCKED,5
1.84,0.50,-0.018829,-0.018829,1015.864746,-0.088663,-0.008182,-0.121932,49.247761,-123.230598,51.900002,LOCKED,5
1.84,0.49,-0.014267,-0.014267,1015.864197,-0.120665,0.054142,-0.083531,49.247761,-123.230598,51.900002,LOCKED,5
1.84,0.48,-0.014267,-0.014267,1015.864197,-0.125912,0.069396,-0.039466,49.247761,-123.230598,51.900002,LOCKED,5
1.84,0.47,-0.035065,-0.035065,1015.866699,-0.127835,0.086562,-0.036424,49.247761,-123.230598,51.900002,LOCKED,5
1.84,0.46,-0.035065,-0.035065,1015.866699,-0.110655,0.074508,-0.055767,49.247761,-123.230598,51.900002,LOCKED,5
1.84,0.44,0.014145,0.014145,1015.860779,-0.139479,0.094531,-0.137987,49.247761,-123.230598,51.900002,LOCKED,5
1.84,0.40,0.014145,0.014145,1015.860779,-0.111607,0.043593,-0.175786,49.247761,-123.230598,51.900002,LOCKED,5
1.84,0.38,-0.017815,-0.017815,1015.864624,-0.067047,0.009019,-0.131800,49.247761,-123.230598,51.900002,LOCKED,5
1.84,0.36,-0.017815,-0.017815,1015.864624,-0.051486,-0.018218,-0.089300,49.247761,-123.230598,51.900002,LOCKED,5
1.84,0.35,-0.013252,-0.013252,1015.864075,-0.040548,-0.028139,-0.076222,49.247761,-123.230598,51.900002,LOCKED,5
1.84,0.33,-0.013252,-0.013252,1015.864075,-0.046777,-0.026271,-0.077512,49.247761,-123.230598,51.900002,LOCKED,5
1.84,0.31,0.063347,0.063347,1015.854858,-0.055936,-0.037458,-0.107926,49.247761,-123.230598,51.900002,LOCKED,5
1.84,0.29,0.063347,0.063347,1015.854858,-0.055785,-0.037608,-0.117345,49.247761,-123.230598,51.900002,LOCKED,5
1.83,0.27,0.037476,0.037476,1015.857971,-0.058336,-0.047045,-0.123705,49.247761,-123.230598,51.900002,LOCKED,5
1.83,0.25,0.037476,0.037476,1015.857971,-0.051352,-0.061187,-0.124567,49.247761,-123.230598,51.900002,LOCKED,5
1.83,0.23,0.023781,0.023781,1015.859619,-0.078486,-0.066889,-0.093482,49.247761,-123.230598,51.900002,LOCKED,5
1.82,0.22,0.023781,0.023781,1015.859619,-0.071563,-0.077941,-0.054971,49.247761,-123.230598,51.900002,LOCKED,5
1.82,0.21,-0.029480,-0.029480,1015.866028,-0.061431,-0.094390,-0.023465,49.247761,-123.230598,51.900002,LOCKED,5
1.82,0.22,-0.029480,-0.029480,1015.866028,-0.057674,-0.102842,0.013776,49.247761,-123.230598,51.900002,LOCKED,5
1.81,0.23,0.002472,0.002472,1015.862183,-0.032411,-0.107412,0.068058,49.247761,-123.230598,51.900002,LOCKED,5
1.81,0.25,0.002472,0.002472,1015.862183,-0.046177,-0.084720,0.130120,49.247761,-123.230598,51.900002,LOCKED,5
1.81,0.28,-0.037086,-0.037086,1015.867004,-0.020471,-0.088957,0.169002,49.247761,-123.230598,51.900002,LOCKED,5
1.80,0.31,-0.037086,-0.037086,1015.867004,-0.025789,-0.083182,0.166464,49.247761,-123.230598,51.900002,LOCKED,5
1.80,0.33,0.081604,0.081604,1015.852661,-0.031500,-0.068219,0.121531,49.247761,-123.230598,51.900002,LOCKED,5
1.80,0.34,0.081604,0.081604,1015.852661,-0.035756,-0.054578,0.085264,49.247761,-123.230598,51.900002,LOCKED,5
1.80,0.36,0.152618,0.152618,1015.844055,-0.017656,-0.042097,0.108384,49.247761,-123.230598,51.900002,LOCKED,5
1.80,0.38,0.152618,0.152618,1015.844055,0.000391,-0.016128,0.112147,49.247761,-123.230598,51.900002,LOCKED,5
1.80,0.39,0.113052,0.113052,1015.848877,0.008224,-0.030948,0.080706,49.247761,-123.230598,51.900002,LOCKED,5
1.80,0.40,0.113052,0.113052,1015.848877,-0.013355,-0.005047,0.028444,49.247761,-123.230598,51.900002,LOCKED,5
1.80,0.40,0.055229,0.055229,1015.855835,-0.045951,0.032345,-0.010423,49.247761,-123.230598,51.900002,LOCKED,5
1.80,0.41,0.055229,0.055229,1015.855835,-0.024097,0.092184,0.084665,49.247761,-123.230598,51.900002,LOCKED,5
1.80,0.44,0.094795,0.094795,1015.851074,0.010421,0.113908,0.202514,49.247761,-123.230598,51.900002,LOCKED,5
1.80,0.49,0.094795,0.094795,1015.851074,0.011949,0.129174,0.268239,49.247761,-123.230598,51.900002,LOCKED,5
1.81,0.53,0.033417,0.033417,1015.858459,-0.038056,0.154716,0.232533,49.247761,-123.230598,51.900002,LOCKED,5
1.81,0.55,0.033417,0.033417,1015.858459,-0.060213,0.180412,0.126574,49.247761,-123.230598,51.900002,LOCKED,5
1.81,0.56,0.020737,0.020737,1015.859985,-0.068446,0.173166,0.012486,49.247761,-123.230598,51.900002,LOCKED,5
1.81,0.55,0.020737,0.020737,1015.859985,-0.062684,0.154578,-0.041167,49.247761,-123.230598,51.900002,LOCKED,5
1.82,0.54,0.007042,0.007042,1015.859985,-0.034967,0.150484,-0.035102,49.247761,-123.230598,51.900002,LOCKED,5
1.82,0.54,0.007042,0.007042,1015.861633,0.000689,0.146882,-0.010737,49.247761,-123.230598,51.900002,LOCKED,5
1.82,0.53,0.007042,0.007042,1015.861633,0.012842,0.121001,-0.036469,49.247761,-123.230598,51.900002,LOCKED,5
1.82,0.51,-0.050278,-0.050278,1015.868591,-0.003303,0.098530,-0.099608,49.247761,-123.230598,51.900002,LOCKED,5
1.82,0.49,-0.050278,-0.050278,1015.868591,0.022666,0.073852,-0.122193,49.247761,-123.230598,51.900002,LOCKED,5
1.83,0.46,-0.095932,-0.095932,1015.874084,0.039980,0.061076,-0.128381,49.247761,-123.230598,51.900002,LOCKED,5
1.83,0.44,-0.095932,-0.095932,1015.874084,0.023767,0.049065,-0.142921,49.247761,-123.230598,51.900002,LOCKED,5
1.83,0.41,-0.140060,-0.140060,1015.879395,0.033846,0.036016,-0.155637,49.247761,-123.230598,51.900002,LOCKED,5
1.82,0.38,-0.140060,-0.140060,1015.879395,0.062890,0.020275,-0.154146,49.247761,-123.230598,51.900002,LOCKED,5
1.82,0.36,-0.145134,-0.145134,1015.880005,0.045977,0.023442,-0.129524,49.247761,-123.230598,51.900002,LOCKED,5
1.82,0.34,-0.145134,-0.145134,1015.880005,0.077496,0.021239,-0.111669,49.247761,-123.230598,51.900002,LOCKED,5
1.82,0.32,-0.060928,-0.060928,1015.869873,0.087608,0.019632,-0.086090,49.247761,-123.230598,51.900002,LOCKED,5
1.82,0.30,-0.060928,-0.060928,1015.869873,0.055283,0.025375,-0.096824,49.247761,-123.230598,51.900002,LOCKED,5
1.81,0.28,-0.131943,-0.131943,1015.878418,0.038772,0.018790,-0.107332,49.247761,-123.230606,51.900002,LOCKED,5
1.81,0.27,-0.131943,-0.131943,1015.878418,0.019164,0.014061,-0.077076,49.247761,-123.230606,51.900002,LOCKED,5
1.81,0.26,-0.066002,-0.066002,1015.870483,0.014248,0.001502,-0.040565,49.247761,-123.230606,51.900002,LOCKED,5
1.81,0.25,-0.066002,-0.066002,1015.870483,0.028093,0.001336,-0.023710,49.247761,-123.230606,51.900002,LOCKED,5
1.80,0.25,-0.052307,-0.052307,1015.868835,0.024853,-0.010298,-0.018606,49.247761,-123.230606,51.900002,LOCKED,5
1.80,0.25,-0.052307,-0.052307,1015.868835,0.046142,0.013805,0.025125,49.247761,-123.230606,51.900002,LOCKED,5
1.80,0.27,-0.096947,-0.096947,1015.874207,0.083522,0.016791,0.092968,49.247761,-123.230606,51.900002,LOCKED,5
1.79,0.29,-0.096947,-0.096947,1015.874207,0.087933,0.018266,0.129058,49.247761,-123.230606,51.900002,LOCKED,5
1.79,0.32,-0.158318,-0.158318,1015.881592,0.031971,0.021198,0.149163,49.247761,-123.230606,51.900002,LOCKED,5
1.79,0.34,-0.158318,-0.158318,1015.881592,-0.026351,0.002755,0.131717,49.247761,-123.230606,51.900002,LOCKED,5
1.79,0.36,-0.170998,-0.170998,1015.883118,-0.092159,0.026389,0.106967,49.247761,-123.230606,51.900002,LOCKED,5
1.79,0.37,-0.170998,-0.170998,1015.883118,-0.141234,0.100778,0.068544,49.247761,-123.230606,51.900002,LOCKED,5
1.78,0.39,-0.189766,-0.189766,1015.885376,-0.158652,0.179765,0.095744,49.247761,-123.230606,51.900002,LOCKED,5
1.78,0.42,-0.189766,-0.189766,1015.885376,-0.096356,0.157790,0.204693,49.247761,-123.230606,51.900002,LOCKED,5
1.78,0.46,-0.163391,-0.163391,1015.882202,-0.038185,0.122848,0.213506,49.247761,-123.230606,51.900002,LOCKED,5
1.78,0.48,-0.163391,-0.163391,1015.882202,-0.028668,0.060578,0.117548,49.247761,-123.230606,51.900002,LOCKED,5
1.78,0.47,-0.181656,-0.181656,1015.884399,-0.090880,0.038139,-0.013955,49.247761,-123.230606,51.900002,LOCKED,5
1.79,0.46,-0.181656,-0.181656,1015.884399,-0.144359,0.068854,-0.058332,49.247761,-123.230606,51.900002,LOCKED,5
1.79,0.46,-0.128395,-0.128395,1015.877991,-0.116332,0.105226,-0.015641,49.247761,-123.230606,51.900002,LOCKED,5
1.79,0.47,-0.128395,-0.128395,1015.877991,-0.077428,0.120941,0.044699,49.247761,-123.230606,51.900002,LOCKED,5
1.79,0.47,-0.009193,-0.009193,1015.863586,-0.093687,0.127181,0.033620,49.247761,-123.230606,51.900002,LOCKED,5
1.79,0.47,-0.009193,-0.009193,1015.863586,-0.108870,0.109850,-0.015425,49.247761,-123.230606,51.900002,LOCKED,5
1.79,0.46,0.057762,0.057762,1015.855530,-0.112567,0.097638,-0.065376,49.247761,-123.230606,51.900002,LOCKED,5
1.79,0.44,0.057762,0.057762,1015.855530,-0.112203,0.061046,-0.110689,49.247761,-123.230606,51.900002,LOCKED,5
1.79,0.41,0.123711,0.123711,1015.847595,-0.085025,0.027187,-0.123263,49.247761,-123.230606,51.900002,LOCKED,5
1.79,0.39,0.123711,0.123711,1015.847595,-0.053414,-0.003136,-0.113488,49.247761,-123.230606,51.900002,LOCKED,5
1.79,0.37,0.092255,0.092255,1015.851379,-0.012177,-0.016428,-0.108967,49.247761,-123.230606,51.900002,LOCKED,5
1.79,0.35,0.092255,0.092255,1015.851379,0.009351,-0.029509,-0.100544,49.247761,-123.230606,51.900002,LOCKED,5
1.79,0.33,0.132332,0.132332,1015.846558,0.016087,-0.021074,-0.099736,49.247761,-123.230606,51.900002,LOCKED,5
1.79,0.32,0.132332,0.132332,1015.846558,0.011426,-0.016111,-0.094094,49.247761,-123.230606,51.900002,LOCKED,5
1.79,0.30,0.034431,0.034431,1015.858337,-0.019952,-0.015981,-0.100103,49.247761,-123.230606,51.900002,LOCKED,5
1.79,0.28,0.034431,0.034431,1015.858337,-0.035727,-0.020424,-0.106678,49.247761,-123.230606,51.900002,LOCKED,5
1.78,0.26,0.048126,0.048126,1015.856689,-0.060765,-0.020539,-0.114167,49.247761,-123.230606,51.900002,LOCKED,5
1.78,0.25,0.048126,0.048126,1015.856689,-0.066631,-0.034462,-0.061428,49.247761,-123.230606,51.900002,LOCKED,5
1.78,0.24,0.020737,0.020737,1015.859985,-0.019229,-0.067885,-0.010680,49.247761,-123.230606,51.900002,LOCKED,5
1.78,0.24,0.020737,0.020737,1015.859985,0.003740,-0.092186,-0.014517,49.247761,-123.230606,51.900002,LOCKED,5
1.77,0.24,0.079071,0.079071,1015.852966,0.026676,-0.080218,0.009923,49.247761,-123.230621,52.000000,LOCKED,5
1.77,0.25,0.079071,0.079071,1015.852966,0.047410,-0.072152,0.086227,49.247761,-123.230621,52.000000,LOCKED,5
1.77,0.28,0.104942,0.104942,1015.849854,0.031544,-0.086970,0.141030,49.247761,-123.230621,52.000000,LOCKED,5
1.77,0.29,0.104942,0.104942,1015.849854,-0.025559,-0.067525,0.090650,49.247761,-123.230621,52.000000,LOCKED,5
1.77,0.31,0.079071,0.079071,1015.852966,-0.040745,-0.055547,0.073305,49.247761,-123.230621,52.000000,LOCKED,5
1.76,0.32,0.079071,0.079071,1015.852966,-0.032962,-0.027740,0.070687,49.247761,-123.230621,52.000000,LOCKED,5
1.76,0.33,0.065880,0.065880,1015.854553,-0.024266,0.043200,0.059671,49.247761,-123.230621,52.000000,LOCKED,5
1.76,0.34,0.065880,0.065880,1015.854553,-0.053000,0.088646,0.051356,49.247761,-123.230621,52.000000,LOCKED,5
1.76,0.35,0.038994,0.038994,1015.857788,-0.101738,0.153070,0.103518,49.247761,-123.230621,52.000000,LOCKED,5
1.76,0.39,0.038994,0.038994,1015.857788,-0.091176,0.181326,0.182007,49.247761,-123.230621,52.000000,LOCKED,5
1.76,0.43,-0.000572,-0.000572,1015.862549,-0.029478,0.154241,0.254065,49.247761,-123.230621,52.000000,LOCKED,5
1.76,0.47,-0.000572,-0.000572,1015.862549,-0.005421,0.154508,0.226736,49.247761,-123.230621,52.000000,LOCKED,5
1.76,0.49,-0.124840,-0.124840,1015.877563,-0.010388,0.119123,0.122297,49.247761,-123.230621,52.000000,LOCKED,5
1.76,0.48,-0.124840,-0.124840,1015.877563,-0.079083,0.122576,-0.031478,49.247761,-123.230621,52.000000,LOCKED,5
1.76,0.47,-0.212593,-0.212593,1015.888123,-0.076653,0.128758,-0.079304,49.247761,-123.230621,52.000000,LOCKED,5
1.77,0.46,-0.212593,-0.212593,1015.888123,-0.041658,0.121787,-0.056737,49.247761,-123.230621,52.000000,LOCKED,5
1.77,0.46,-0.212593,-0.212593,1015.888123,-0.019443,0.114437,0.004457,49.247761,-123.230621,52.000000,LOCKED,5
1.77,0.46,-0.212593,-0.212593,1015.888123,-0.001931,0.063522,0.031862,49.247761,-123.230621,52.000000,LOCKED,5
1.77,0.46,-0.225273,-0.225273,1015.889709,0.005497,0.044661,-0.016105,49.247761,-123.230621,52.000000,LOCKED,5
1.77,0.44,-0.225273,-0.225273,1015.889709,-0.014941,0.030358,-0.113107,49.247761,-123.230621,52.000000,LOCKED,5
1.77,0.40,-0.124840,-0.124840,1015.877563,0.003278,0.000056,-0.181877,49.247761,-123.230621,52.000000,LOCKED,5
1.76,0.37,-0.124840,-0.124840,1015.877563,0.001770,-0.031171,-0.202989,49.247761,-123.230621,52.000000,LOCKED,5
1.76,0.33,-0.067017,-0.067017,1015.870605,0.004713,-0.018070,-0.198564,49.247761,-123.230621,52.000000,LOCKED,5
1.76,0.30,-0.067017,-0.067017,1015.870605,0.053553,-0.008174,-0.149154,49.247761,-123.230621,52.000000,LOCKED,5
1.76,0.28,-0.009193,-0.009193,1015.863586,0.051755,0.010798,-0.103129,49.247761,-123.230621,52.000000,LOCKED,5
1.76,0.27,-0.009193,-0.009193,1015.863586,0.060902,0.026515,-0.057678,49.247761,-123.230621,52.000000,LOCKED,5
1.75,0.26,-0.067017,-0.067017,1015.870605,0.048741,0.049373,-0.051797,49.247761,-123.230621,52.000000,LOCKED,5
1.75,0.26,-0.067017,-0.067017,1015.870605,0.030103,0.061073,-0.035938,49.247761,-123.230621,52.000000,LOCKED,5
1.75,0.26,-0.080208,-0.080208,1015.872192,0.023027,0.038967,0.001726,49.247761,-123.230621,52.000000,LOCKED,5
1.75,0.26,-0.080208,-0.080208,1015.872192,0.003737,0.030857,0.019509,49.247761,-123.230621,52.000000,LOCKED,5
1.74,0.26,-0.111145,-0.111145,1015.875916,-0.018781,0.031544,0.026424,49.247761,-123.230621,52.000000,LOCKED,5
1.74,0.26,-0.111145,-0.111145,1015.875916,-0.003488,0.019724,0.015707,49.247761,-123.230621,52.000000,LOCKED,5
1.74,0.26,-0.124840,-0.124840,1015.875916,-0.010235,0.015756,-0.001089,49.247761,-123.230621,52.000000,LOCKED,5
1.73,0.27,-0.124840,-0.124840,1015.877563,-0.000839,-0.004403,0.015949,49.247761,-123.230621,52.000000,LOCKED,5
1.73,0.27,-0.111145,-0.111145,1015.877563,-0.000838,-0.009693,0.041633,49.247761,-123.230621,52.000000,LOCKED,5
1.73,0.28,-0.111145,-0.111145,1015.875916,-0.060247,0.009475,0.053011,49.247761,-123.230621,52.000000,LOCKED,5
1.73,0.30,-0.111145,-0.111145,1015.875916,-0.094582,0.066364,0.097616,49.247761,-123.230621,52.000000,LOCKED,5
1.73,0.33,-0.111145,-0.111145,1015.875916,-0.078199,0.116071,0.173049,49.247761,-123.230621,52.000000,LOCKED,5
1.72,0.37,-0.111145,-0.111145,1015.875916,-0.051046,0.130156,0.249583,49.247761,-123.230621,52.000000,LOCKED,5
1.72,0.42,-0.124840,-0.124840,1015.877563,-0.032694,0.107733,0.288428,49.247761,-123.230621,52.000000,LOCKED,5
1.72,0.46,-0.124840,-0.124840,1015.877563,-0.054545,0.072648,0.219754,49.247761,-123.230621,52.000000,LOCKED,5
1.72,0.47,-0.164406,-0.164406,1015.882324,-0.105368,0.053804,0.084700,49.247761,-123.230621,52.000000,LOCKED,5
1.73,0.47,-0.164406,-0.164406,1015.882324,-0.143093,0.065383,-0.026103,49.247761,-123.230621,52.000000,LOCKED,5
1.73,0.46,-0.291725,-0.291725,1015.897705,-0.110794,0.081595,-0.062497,49.247761,-123.230621,52.000000,LOCKED,5
1.73,0.45,-0.291725,-0.291725,1015.897705,-0.051959,0.111845,-0.053168,49.247761,-123.230621,52.000000,LOCKED,5
1.73,0.44,-0.257736,-0.257736,1015.893616,-0.059441,0.132712,-0.002062,49.247761,-123.230621,52.000000,LOCKED,5
1.73,0.44,-0.257736,-0.257736,1015.893616,-0.104150,0.146805,-0.002509,49.247761,-123.230621,52.000000,LOCKED,5
1.73,0.43,-0.257736,-0.257736,1015.893616,-0.131154,0.126939,-0.044236,49.247761,-123.230621,52.000000,LOCKED,5
1.72,0.41,-0.257736,-0.257736,1015.893616,-0.128042,0.081847,-0.118392,49.247761,-123.230621,52.000000,LOCKED,5
1.72,0.38,-0.284111,-0.284111,1015.896790,-0.093563,0.030780,-0.201835,49.247761,-123.230621,52.000000,LOCKED,5
1.72,0.33,-0.284111,-0.284111,1015.896790,-0.092174,-0.008273,-0.242414,49.247761,-123.230621,52.000000,LOCKED,5
1.72,0.30,-0.212593,-0.212593,1015.888123,-0.098466,-0.017639,-0.179037,49.247761,-123.230621,52.000000,LOCKED,5
1.72,0.28,-0.212593,-0.212593,1015.888123,-0.049098,-0.030321,-0.098694,49.247761,-123.230621,52.000000,LOCKED,5
1.71,0.27,-0.173027,-0.173027,1015.883362,-0.030873,-0.026177,-0.054332,49.247761,-123.230621,52.000000,LOCKED,5
1.71,0.26,-0.173027,-0.173027,1015.883362,-0.023248,-0.026015,-0.049596,49.247761,-123.230621,52.000000,LOCKED,5
1.71,0.25,-0.199409,-0.199409,1015.886536,-0.041399,-0.012432,-0.055674,49.247761,-123.230621,52.000000,LOCKED,5
1.70,0.24,-0.199409,-0.199409,1015.886536,-0.046183,-0.003783,-0.033576,49.247761,-123.230621,52.000000,LOCKED,5
1.70,0.24,-0.199409,-0.199409,1015.886536,-0.057139,-0.014956,-0.023534,49.247761,-123.230621,52.000000,LOCKED,5
1.70,0.23,-0.199409,-0.199409,1015.886536,-0.044575,-0.047025,-0.008844,49.247761,-123.230621,52.000000,LOCKED,5
1.69,0.24,-0.225784,-0.225784,1015.889771,-0.045443,-0.046590,0.017034,49.247761,-123.230621,52.000000,LOCKED,5
1.69,0.24,-0.225784,-0.225784,1015.889771,-0.032691,-0.028080,0.044442,49.247761,-123.230621,52.000000,LOCKED,5
1.69,0.26,-0.252159,-0.252159,1015.892944,-0.022496,-0.003876,0.094429,49.247761,-123.230621,52.000000,LOCKED,5
1.68,0.28,-0.252159,-0.252159,1015.892944,-0.057808,0.000517,0.109097,49.247761,-123.230621,52.000000,LOCKED,5
1.68,0.29,-0.279045,-0.279045,1015.896179,-0.110930,-0.002250,0.061592,49.247761,-123.230621,52.000000,LOCKED,5
1.68,0.30,-0.279045,-0.279045,1015.896179,-0.100761,0.012527,0.058602,49.247761,-123.230621,52.000000,LOCKED,5
1.68,0.32,-0.305420,-0.305420,1015.899353,-0.063842,0.062862,0.122971,49.247761,-123.230621,52.000000,LOCKED,5
1.67,0.35,-0.305420,-0.305420,1015.899353,-0.067027,0.184743,0.181896,49.247761,-123.230621,52.000000,LOCKED,5
1.67,0.39,-0.305420,-0.305420,1015.899353,-0.074806,0.270866,0.238893,49.247761,-123.230621,52.000000,LOCKED,5
1.67,0.43,-0.305420,-0.305420,1015.899353,-0.036725,0.285070,0.231040,49.247761,-123.230621,52.000000,LOCKED,5
1.67,0.46,-0.247086,-0.247086,1015.892334,0.016350,0.215539,0.177852,49.247761,-123.230621,52.000000,LOCKED,5
1.67,0.48,-0.247086,-0.247086,1015.892334,0.028137,0.163178,0.099553,49.247761,-123.230621,52.000000,LOCKED,5
1.67,0.49,-0.318604,-0.318604,1015.900940,0.003965,0.085540,0.049084,49.247761,-123.230621,52.000000,LOCKED,5
1.67,0.48,-0.318604,-0.318604,1015.900940,-0.020473,0.048366,-0.043533,49.247761,-123.230621,52.000000,LOCKED,5
1.67,0.45,-0.260780,-0.260780,1015.893982,-0.051037,0.031787,-0.129630,49.247761,-123.230621,52.000000,LOCKED,5
1.67,0.43,-0.260780,-0.260780,1015.893982,-0.061530,0.062173,-0.141387,49.247761,-123.230621,52.000000,LOCKED,5
1.67,0.41,-0.260780,-0.260780,1015.893982,-0.001381,0.083576,-0.088317,49.247761,-123.230621,52.000000,LOCKED,5
1.67,0.41,-0.260780,-0.260780,1015.893982,0.025805,0.096967,0.000903,49.247761,-123.230621,52.000000,LOCKED,5
1.67,0.42,-0.274475,-0.274475,1015.895630,0.010239,0.102471,0.034745,49.247761,-123.230621,52.000000,LOCKED,5
1.67,0.41,-0.274475,-0.274475,1015.895630,0.010343,0.059906,-0.006383,49.247761,-123.230621,52.000000,LOCKED,5
1.67,0.40,-0.163391,-0.163391,1015.882202,0.004432,0.018180,-0.097772,49.247761,-123.230621,52.000000,LOCKED,5
1.67,0.36,-0.163391,-0.163391,1015.882202,-0.019846,-0.033843,-0.177360,49.247761,-123.230621,52.000000,LOCKED,5
1.67,0.33,-0.208031,-0.208031,1015.887573,-0.020764,-0.045563,-0.196193,49.247761,-123.230621,52.000000,LOCKED,5
1.67,0.30,-0.208031,-0.208031,1015.887573,-0.007765,-0.029848,-0.146316,49.247761,-123.230621,52.000000,LOCKED,5
1.67,0.29,-0.208031,-0.208031,1015.887573,0.042391,-0.020071,-0.064938,49.247761,-123.230621,52.000000,LOCKED,5
1.66,0.29,-0.208031,-0.208031,1015.887573,0.082116,-0.011283,-0.002332,49.247746,-123.230644,52.000000,LOCKED,5
1.66,0.28,-0.194336,-0.194336,1015.885925,0.053455,-0.002121,-0.022686,49.247746,-123.230644,52.000000,LOCKED,5
1.66,0.26,-0.194336,-0.194336,1015.885925,-0.027911,0.026713,-0.099628,49.247746,-123.230644,52.000000,LOCKED,5
1.65,0.24,-0.221214,-0.221214,1015.889221,-0.073118,0.050419,-0.126478,49.247746,-123.230644,52.000000,LOCKED,5
1.65,0.22,-0.221214,-0.221214,1015.889221,-0.086140,0.037082,-0.115211,49.247746,-123.230644,52.000000,LOCKED,5
1.65,0.21,-0.221214,-0.221214,1015.889221,-0.077571,0.046443,-0.057613,49.247746,-123.230644,52.000000,LOCKED,5
1.64,0.21,-0.221214,-0.221214,1015.889221,-0.026819,0.048784,0.025990,49.247746,-123.230644,52.000000,LOCKED,5
1.64,0.23,-0.176071,-0.176071,1015.883728,0.015831,0.057320,0.097892,49.247746,-123.230644,52.000000,LOCKED,5
1.64,0.25,-0.176071,-0.176071,1015.883728,0.003695,0.061471,0.135710,49.247746,-123.230644,52.000000,LOCKED,5
1.63,0.27,-0.176071,-0.176071,1015.883728,-0.033706,0.080451,0.105996,49.247746,-123.230644,52.000000,LOCKED,5
1.63,0.28,-0.176071,-0.176071,1015.883728,-0.060716,0.075812,0.067702,49.247746,-123.230644,52.000000,LOCKED,5
1.63,0.29,-0.131439,-0.131439,1015.878357,-0.063275,0.121102,0.076322,49.247746,-123.230644,52.000000,LOCKED,5
1.63,0.32,-0.131439,-0.131439,1015.878357,-0.029431,0.126348,0.153443,49.247746,-123.230644,52.000000,LOCKED,5
1.63,0.36,-0.084267,-0.084267,1015.872681,-0.015177,0.121008,0.245700,49.247746,-123.230644,52.000000,LOCKED,5
