Header, Pz, P_Vel, Altitude, Pressure, Acc_X, Acc_Y, Acc_Z, Lat, Long, Altitude_GPS, LOCK, Satellites, q_w, q_x, q_y, q_z, Px, Vx, Py, Vy
hyu, -6.00,0.11,-5.91,1006.438,-0.009716,-0.058767,0.001635,49.250546,-123.234413,57.40,1,3,0.772,0.032,-0.040,-0.633,-0.22,-0.43,-0.28,-0.40
hyu, -5.99,0.12,-5.88,1006.435,-0.006540,-0.072052,0.007341,49.250546,-123.234413,57.40,1,3,0.772,0.032,-0.040,-0.634,-0.22,-0.43,-0.28,-0.40
hyu, -5.99,0.12,-5.88,1006.435,-0.008708,-0.080788,-0.005405,49.250546,-123.234413,57.40,1,3,0.771,0.032,-0.040,-0.634,-0.22,-0.43,-0.27,-0.40
hyu, -5.99,0.12,-5.85,1006.431,-0.004677,-0.075243,0.005075,49.250546,-123.234413,57.40,1,3,0.771,0.032,-0.040,-0.634,-0.22,-0.43,-0.27,-0.40
hyu, -5.98,0.12,-5.85,1006.431,-0.015788,-0.071761,0.009105,49.250546,-123.234413,57.40,1,3,0.771,0.032,-0.040,-0.635,-0.23,-0.43,-0.27,-0.40
hyu, -5.98,0.12,-5.85,1006.431,-0.008490,-0.060977,0.011564,49.250546,-123.234413,57.40,1,3,0.771,0.032,-0.040,-0.635,-0.23,-0.43,-0.27,-0.40
hyu, -5.97,0.13,-5.85,1006.431,-0.009971,-0.068704,-0.000867,49.250546,-123.234413,57.40,1,3,0.771,0.032,-0.040,-0.635,-0.23,-0.43,-0.27,-0.40
hyu, -5.97,0.13,-5.77,1006.422,-0.018915,-0.079393,0.006029,49.250546,-123.234413,57.40,1,3,0.771,0.032,-0.040,-0.635,-0.23,-0.43,-0.27,-0.40
hyu, -5.96,0.13,-5.77,1006.422,-0.013375,-0.078256,-0.001301,49.250546,-123.234413,57.40,1,3,0.771,0.032,-0.040,-0.635,-0.23,-0.44,-0.27,-0.40
hyu, -5.96,0.13,-5.84,1006.430,-0.014161,-0.066604,-0.007775,49.250546,-123.234413,57.40,1,3,0.771,0.032,-0.040,-0.635,-0.23,-0.44,-0.27,-0.40
hyu, -5.96,0.13,-5.84,1006.430,-0.014302,-0.063615,-0.004828,49.250546,-123.234413,57.40,1,3,0.770,0.032,-0.040,-0.635,-0.23,-0.44,-0.27,-0.39
hyu, -5.95,0.13,-5.81,1006.427,-0.013762,-0.064956,0.007013,49.250546,-123.234413,57.40,1,3,0.770,0.032,-0.040,-0.636,-0.23,-0.44,-0.27,-0.39
hyu, -5.95,0.13,-5.81,1006.427,-0.020085,-0.066017,-0.002236,49.250546,-123.234413,57.40,1,3,0.770,0.032,-0.040,-0.636,-0.24,-0.44,-0.27,-0.39
hyu, -5.94,0.14,-5.81,1006.427,-0.017479,-0.065716,0.007821,49.250546,-123.234413,57.40,1,3,0.770,0.032,-0.039,-0.636,-0.24,-0.45,-0.27,-0.39
hyu, -5.94,0.14,-5.81,1006.427,-0.014035,-0.066404,0.004212,49.250546,-123.234413,57.40,1,3,0.770,0.032,-0.039,-0.636,-0.24,-0.45,-0.27,-0.39
hyu, -5.93,0.14,-5.80,1006.425,-0.006424,-0.067543,0.002711,49.250546,-123.234413,57.40,1,3,0.770,0.032,-0.039,-0.636,-0.24,-0.45,-0.27,-0.38
hyu, -5.93,0.14,-5.80,1006.425,-0.015512,-0.069367,-0.018597,49.250546,-123.234413,57.40,1,3,0.770,0.032,-0.039,-0.637,-0.24,-0.45,-0.27,-0.38
hyu, -5.92,0.14,-5.77,1006.422,-0.013802,-0.077714,0.000763,49.250546,-123.234413,57.40,1,3,0.769,0.032,-0.039,-0.637,-0.24,-0.45,-0.27,-0.38
hyu, -5.92,0.14,-5.77,1006.422,-0.019367,-0.071349,0.007352,49.250546,-123.234413,57.40,1,3,0.769,0.032,-0.039,-0.637,-0.24,-0.45,-0.27,-0.38
hyu, -5.92,0.14,-5.83,1006.428,-0.012378,-0.079393,0.010522,49.250546,-123.234413,57.40,1,3,0.769,0.032,-0.039,-0.637,-0.25,-0.45,-0.27,-0.38
hyu, -5.91,0.15,-5.83,1006.428,-0.018500,-0.078689,0.007671,49.250546,-123.234413,57.40,1,3,0.769,0.032,-0.039,-0.637,-0.25,-0.46,-0.27,-0.38
hyu, -5.91,0.15,-5.92,1006.440,-0.016259,-0.079647,-0.001894,49.250546,-123.234413,57.40,1,3,0.769,0.032,-0.039,-0.637,-0.25,-0.46,-0.27,-0.38
hyu, -5.91,0.15,-5.92,1006.440,-0.020329,-0.072229,0.009003,49.250546,-123.234413,57.40,1,3,0.769,0.031,-0.039,-0.638,-0.25,-0.46,-0.27,-0.38
hyu, -5.91,0.15,-6.01,1006.450,-0.018392,-0.066434,-0.001795,49.250546,-123.234413,57.40,1,3,0.769,0.031,-0.040,-0.638,-0.25,-0.46,-0.26,-0.38
hyu, -5.91,0.15,-6.01,1006.450,-0.017649,-0.071850,0.000581,49.250546,-123.234413,57.40,1,3,0.768,0.031,-0.040,-0.638,-0.25,-0.46,-0.26,-0.38
hyu, -5.91,0.15,-6.06,1006.456,-0.025726,-0.065861,0.000555,49.250546,-123.234413,57.40,1,3,0.768,0.031,-0.040,-0.638,-0.25,-0.47,-0.26,-0.38
hyu, -5.90,0.15,-6.06,1006.456,-0.017285,-0.060448,0.009078,49.250546,-123.234413,57.40,1,3,0.768,0.031,-0.041,-0.639,-0.25,-0.47,-0.26,-0.37
hyu, -5.90,0.15,-6.01,1006.450,-0.019299,-0.057173,0.000820,49.250546,-123.234413,57.40,1,3,0.767,0.030,-0.041,-0.639,-0.26,-0.47,-0.26,-0.37
hyu, -5.90,0.15,-6.01,1006.450,-0.013516,-0.059641,-0.004143,49.250546,-123.234413,57.40,1,3,0.767,0.030,-0.041,-0.640,-0.26,-0.47,-0.26,-0.37
hyu, -5.90,0.15,-6.09,1006.459,-0.012493,-0.066493,0.000972,49.250546,-123.234413,57.40,1,3,0.766,0.030,-0.041,-0.640,-0.26,-0.47,-0.26,-0.37
hyu, -5.90,0.15,-6.09,1006.459,-0.001093,-0.069607,0.002014,49.250546,-123.234413,57.40,1,3,0.766,0.031,-0.042,-0.641,-0.26,-0.47,-0.26,-0.37
hyu, -5.90,0.15,-6.04,1006.454,-0.001163,-0.073060,0.008492,49.250546,-123.234413,57.40,1,3,0.766,0.031,-0.042,-0.641,-0.26,-0.47,-0.26,-0.37
hyu, -5.90,0.15,-6.04,1006.454,-0.005888,-0.075044,-0.002709,49.250546,-123.234413,57.40,1,3,0.765,0.031,-0.042,-0.642,-0.26,-0.47,-0.26,-0.37
hyu, -5.90,0.15,-6.07,1006.458,-0.006232,-0.078913,0.003478,49.250546,-123.234413,57.40,1,3,0.765,0.031,-0.043,-0.642,-0.26,-0.47,-0.26,-0.37
hyu, -5.90,0.15,-6.07,1006.458,-0.003172,-0.068231,0.001573,49.250546,-123.234413,57.40,1,3,0.765,0.031,-0.043,-0.642,-0.26,-0.47,-0.26,-0.36
hyu, -5.90,0.15,-6.10,1006.461,-0.005619,-0.066825,0.002832,49.250546,-123.234413,57.40,1,3,0.765,0.031,-0.043,-0.642,-0.27,-0.47,-0.26,-0.36
hyu, -5.90,0.15,-6.10,1006.461,-0.010153,-0.072506,0.002191,49.250546,-123.234413,57.40,1,3,0.764,0.031,-0.043,-0.643,-0.27,-0.47,-0.26,-0.36
hyu, -5.90,0.15,-6.09,1006.460,-0.000732,-0.081020,0.006523,49.250546,-123.234413,57.40,1,3,0.764,0.031,-0.043,-0.643,-0.27,-0.47,-0.26,-0.36
hyu, -5.90,0.15,-6.09,1006.460,-0.014212,-0.074493,0.003370,49.250546,-123.234413,57.40,1,3,0.764,0.031,-0.044,-0.643,-0.27,-0.47,-0.26,-0.36
hyu, -5.90,0.15,-6.07,1006.458,-0.009440,-0.065456,0.018346,49.250546,-123.234413,57.40,1,3,0.764,0.031,-0.044,-0.643,-0.27,-0.47,-0.26,-0.36
hyu, -5.90,0.15,-6.07,1006.458,-0.018202,-0.065589,0.005615,49.250546,-123.234413,57.40,1,3,0.764,0.031,-0.044,-0.643,-0.27,-0.47,-0.25,-0.36
hyu, -5.90,0.15,-6.02,1006.451,-0.016339,-0.070670,0.000685,49.250546,-123.234413,57.40,1,3,0.764,0.031,-0.044,-0.643,-0.27,-0.47,-0.25,-0.36
hyu, -5.90,0.15,-6.02,1006.451,-0.012102,-0.074249,-0.002515,49.250546,-123.234413,57.40,1,3,0.764,0.031,-0.044,-0.642,-0.27,-0.47,-0.25,-0.36
hyu, -5.90,0.15,-6.00,1006.450,-0.019393,-0.071337,-0.001109,49.250546,-123.234413,57.40,1,3,0.764,0.031,-0.044,-0.642,-0.27,-0.48,-0.25,-0.36
hyu, -5.90,0.15,-6.00,1006.450,-0.016785,-0.059859,-0.000451,49.250546,-123.234413,57.40,1,3,0.765,0.031,-0.044,-0.642,-0.27,-0.48,-0.25,-0.36
hyu, -5.90,0.15,-6.09,1006.460,-0.010273,-0.070640,-0.009228,49.250546,-123.234413,57.40,1,3,0.764,0.031,-0.044,-0.642,-0.28,-0.48,-0.25,-0.35
hyu, -5.90,0.14,-6.09,1006.460,-0.009064,-0.075733,-0.014741,49.250546,-123.234413,57.40,1,3,0.764,0.031,-0.044,-0.642,-0.28,-0.48,-0.25,-0.35
hyu, -5.90,0.14,-6.09,1006.459,-0.014155,-0.073768,0.002820,49.250546,-123.234413,57.40,1,3,0.765,0.031,-0.043,-0.642,-0.28,-0.48,-0.25,-0.35
hyu, -5.90,0.14,-6.09,1006.459,-0.011805,-0.065841,0.008636,49.250546,-123.234413,57.40,1,3,0.765,0.031,-0.043,-0.642,-0.28,-0.48,-0.25,-0.35
hyu, -5.90,0.14,-6.03,1006.453,-0.003576,-0.065135,-0.001802,49.250546,-123.234413,57.40,1,3,0.765,0.031,-0.043,-0.642,-0.28,-0.48,-0.25,-0.35
hyu, -5.90,0.14,-6.03,1006.453,-0.000164,-0.081356,-0.013410,49.250546,-123.234413,57.40,1,3,0.765,0.031,-0.043,-0.642,-0.28,-0.48,-0.25,-0.35
hyu, -5.90,0.14,-6.03,1006.453,0.000397,-0.075723,-0.005370,49.250546,-123.234413,57.40,1,3,0.765,0.032,-0.043,-0.642,-0.28,-0.47,-0.25,-0.35
hyu, -5.90,0.14,-6.03,1006.453,-0.002144,-0.074943,-0.001797,49.250546,-123.234413,57.40,1,3,0.765,0.032,-0.042,-0.641,-0.28,-0.47,-0.25,-0.35
hyu, -5.90,0.14,-6.14,1006.466,0.005465,-0.077878,-0.004511,49.250546,-123.234413,57.40,1,3,0.766,0.032,-0.042,-0.641,-0.28,-0.47,-0.25,-0.35
hyu, -5.90,0.13,-6.14,1006.466,0.005917,-0.082614,-0.005848,49.250546,-123.234413,57.40,1,3,0.766,0.032,-0.041,-0.640,-0.28,-0.47,-0.25,-0.35
hyu, -5.90,0.13,-6.09,1006.460,-0.006702,-0.072649,0.008795,49.250546,-123.234413,57.40,1,3,0.767,0.033,-0.041,-0.640,-0.28,-0.47,-0.25,-0.35
hyu, -5.90,0.13,-6.09,1006.460,-0.007304,-0.067039,0.005023,49.250546,-123.234413,57.40,1,3,0.768,0.033,-0.040,-0.639,-0.28,-0.47,-0.25,-0.35
hyu, -5.90,0.13,-6.10,1006.461,-0.012557,-0.083386,-0.007852,49.250546,-123.234413,57.40,1,3,0.768,0.032,-0.038,-0.638,-0.28,-0.47,-0.25,-0.35
hyu, -5.90,0.13,-6.10,1006.461,-0.000580,-0.089028,-0.022488,49.250546,-123.234413,57.40,1,3,0.769,0.032,-0.037,-0.638,-0.28,-0.46,-0.25,-0.36
hyu, -5.90,0.13,-6.12,1006.463,-0.010248,-0.084373,0.000790,49.250546,-123.234413,57.40,1,3,0.770,0.033,-0.036,-0.637,-0.28,-0.46,-0.24,-0.36
hyu, -5.90,0.13,-6.12,1006.463,-0.011440,-0.061105,0.016455,49.250546,-123.234413,57.40,1,3,0.770,0.033,-0.034,-0.636,-0.28,-0.47,-0.24,-0.36
hyu, -5.90,0.13,-6.17,1006.470,-0.005726,-0.058782,0.030948,49.250546,-123.234413,57.40,1,3,0.771,0.033,-0.033,-0.635,-0.29,-0.46,-0.24,-0.35
hyu, -5.91,0.13,-6.17,1006.470,-0.008106,-0.086679,0.010005,49.250546,-123.234413,57.40,1,3,0.772,0.033,-0.031,-0.634,-0.29,-0.46,-0.24,-0.36
hyu, -5.91,0.13,-6.22,1006.476,-0.007840,-0.092498,-0.006971,49.250546,-123.234413,57.40,1,3,0.773,0.033,-0.030,-0.633,-0.29,-0.46,-0.24,-0.36
hyu, -5.91,0.13,-6.22,1006.476,-0.014589,-0.083540,-0.002741,49.250546,-123.234413,57.40,1,3,0.774,0.032,-0.029,-0.632,-0.29,-0.46,-0.24,-0.36
hyu, -5.91,0.13,-6.25,1006.480,-0.013670,-0.076987,-0.000322,49.250546,-123.234413,57.40,1,3,0.775,0.032,-0.028,-0.631,-0.29,-0.46,-0.24,-0.36
hyu, -5.92,0.13,-6.25,1006.480,-0.004062,-0.084780,-0.003501,49.250546,-123.234413,57.40,1,3,0.776,0.032,-0.027,-0.629,-0.29,-0.46,-0.24,-0.36
hyu, -5.92,0.12,-6.20,1006.473,-0.015344,-0.080621,-0.005737,49.250546,-123.234413,57.40,1,3,0.777,0.031,-0.027,-0.628,-0.29,-0.46,-0.24,-0.36
hyu, -5.92,0.12,-6.20,1006.473,-0.016125,-0.068669,0.000419,49.250546,-123.234413,57.40,1,3,0.779,0.031,-0.026,-0.626,-0.29,-0.47,-0.24,-0.36
hyu, -5.92,0.12,-6.19,1006.471,-0.005029,-0.075920,-0.011663,49.250546,-123.234413,57.40,1,3,0.780,0.030,-0.026,-0.625,-0.29,-0.46,-0.24,-0.36
hyu, -5.92,0.11,-6.19,1006.471,-0.004284,-0.088352,-0.018771,49.250546,-123.234413,57.40,1,3,0.781,0.030,-0.025,-0.623,-0.29,-0.46,-0.24,-0.37
hyu, -5.92,0.11,-6.09,1006.460,-0.005908,-0.099659,-0.025092,49.250546,-123.234413,57.40,1,3,0.782,0.029,-0.024,-0.622,-0.29,-0.46,-0.24,-0.37
hyu, -5.92,0.10,-6.09,1006.460,-0.004526,-0.102129,-0.038484,49.250546,-123.234413,57.40,1,3,0.784,0.030,-0.023,-0.620,-0.29,-0.46,-0.24,-0.38
hyu, -5.92,0.10,-6.09,1006.460,-0.009553,-0.084656,-0.026933,49.250546,-123.234413,57.40,1,3,0.786,0.030,-0.023,-0.617,-0.29,-0.46,-0.24,-0.38
hyu, -5.92,0.10,-6.09,1006.460,-0.011497,-0.075631,-0.006186,49.250546,-123.234413,57.40,1,3,0.787,0.031,-0.022,-0.616,-0.29,-0.46,-0.24,-0.38
hyu, -5.93,0.10,-6.08,1006.458,0.003653,-0.063241,0.017629,49.250546,-123.234413,57.40,1,3,0.789,0.031,-0.022,-0.613,-0.29,-0.46,-0.24,-0.38
hyu, -5.93,0.10,-6.08,1006.458,0.009300,-0.076050,0.009964,49.250546,-123.234413,57.40,1,3,0.791,0.032,-0.021,-0.611,-0.29,-0.46,-0.24,-0.38
hyu, -5.93,0.10,-6.13,1006.465,0.003204,-0.082528,0.020433,49.250546,-123.234413,57.40,1,3,0.792,0.032,-0.020,-0.609,-0.29,-0.45,-0.24,-0.38
hyu, -5.93,0.10,-6.13,1006.465,-0.006547,-0.081360,0.018365,49.250546,-123.234413,57.40,1,3,0.794,0.032,-0.019,-0.607,-0.29,-0.45,-0.24,-0.38
hyu, -5.93,0.10,-6.19,1006.471,-0.009461,-0.097675,0.001194,49.250546,-123.234413,57.40,1,3,0.796,0.032,-0.018,-0.605,-0.29,-0.45,-0.24,-0.38
hyu, -5.93,0.10,-6.19,1006.471,-0.004364,-0.077952,0.000788,49.250546,-123.234413,57.40,1,3,0.798,0.031,-0.018,-0.602,-0.29,-0.45,-0.24,-0.38
hyu, -5.93,0.10,-6.15,1006.467,-0.012520,-0.070488,0.011664,49.250546,-123.234413,57.40,1,3,0.799,0.032,-0.018,-0.600,-0.29,-0.45,-0.24,-0.38
hyu, -5.93,0.10,-6.15,1006.467,-0.027467,-0.079766,0.002310,49.250546,-123.234413,57.40,1,3,0.801,0.031,-0.018,-0.598,-0.29,-0.45,-0.24,-0.38
hyu, -5.93,0.11,-6.09,1006.460,-0.022967,-0.051131,0.023030,49.250546,-123.234413,57.40,1,3,0.803,0.031,-0.018,-0.595,-0.29,-0.46,-0.24,-0.38
hyu, -5.93,0.11,-6.09,1006.460,-0.032003,-0.054388,0.024026,49.250546,-123.234413,57.40,1,3,0.804,0.031,-0.018,-0.593,-0.29,-0.46,-0.24,-0.38
hyu, -5.93,0.11,-6.06,1006.457,-0.029996,-0.069243,0.016852,49.250546,-123.234413,57.40,1,3,0.806,0.031,-0.018,-0.591,-0.29,-0.46,-0.24,-0.38
hyu, -5.93,0.11,-6.06,1006.457,-0.026977,-0.060660,0.010895,49.250546,-123.234413,57.40,1,3,0.807,0.031,-0.017,-0.589,-0.29,-0.47,-0.24,-0.37
hyu, -5.94,0.11,-6.12,1006.463,-0.030980,-0.061333,0.000062,49.250546,-123.234413,57.40,1,3,0.809,0.031,-0.017,-0.587,-0.29,-0.47,-0.24,-0.37
hyu, -5.94,0.11,-6.12,1006.463,-0.029176,-0.076103,-0.002727,49.250546,-123.234413,57.40,1,3,0.810,0.031,-0.017,-0.586,-0.29,-0.47,-0.24,-0.37
hyu, -5.94,0.11,-6.09,1006.460,-0.035021,-0.049635,0.001859,49.250546,-123.234413,57.40,1,3,0.811,0.031,-0.017,-0.584,-0.29,-0.48,-0.24,-0.37
hyu, -5.94,0.11,-6.09,1006.460,-0.044814,-0.043461,0.009513,49.250546,-123.234413,57.40,1,3,0.812,0.031,-0.017,-0.583,-0.29,-0.48,-0.24,-0.36
hyu, -5.94,0.12,-6.04,1006.453,-0.036271,-0.047108,0.025153,49.250546,-123.234413,57.40,1,3,0.812,0.031,-0.018,-0.583,-0.29,-0.49,-0.24,-0.36
hyu, -5.94,0.12,-6.04,1006.453,-0.039828,-0.061305,0.005456,49.250546,-123.234413,57.40,1,3,0.812,0.031,-0.018,-0.582,-0.29,-0.49,-0.24,-0.36
hyu, -5.94,0.12,-6.09,1006.460,-0.029243,-0.077298,0.005054,49.250546,-123.234413,57.40,1,3,0.812,0.030,-0.019,-0.582,-0.29,-0.49,-0.24,-0.36
hyu, -5.94,0.12,-6.09,1006.460,-0.036625,-0.069178,0.004361,49.250546,-123.234413,57.40,1,3,0.813,0.030,-0.019,-0.582,-0.30,-0.50,-0.24,-0.36
hyu, -5.94,0.12,-6.06,1006.457,-0.035175,-0.059980,0.026028,49.250546,-123.234413,57.40,1,3,0.813,0.030,-0.020,-0.581,-0.30,-0.50,-0.24,-0.35
hyu, -5.93,0.13,-6.06,1006.457,-0.035663,-0.040827,0.013260,49.250546,-123.234413,57.40,1,3,0.813,0.029,-0.020,-0.581,-0.30,-0.51,-0.24,-0.35
hyu, -5.93,0.12,-6.06,1006.457,-0.030539,-0.047457,-0.003712,49.250546,-123.234413,57.40,1,3,0.813,0.029,-0.020,-0.581,-0.30,-0.51,-0.24,-0.34
hyu, -5.93,0.12,-6.06,1006.457,-0.031653,-0.061530,-0.025191,49.250546,-123.234413,57.40,1,3,0.813,0.029,-0.019,-0.581,-0.30,-0.51,-0.24,-0.34
hyu, -5.93,0.12,-6.09,1006.460,-0.022060,-0.067419,-0.013217,49.250546,-123.234413,57.40,1,3,0.813,0.029,-0.019,-0.581,-0.30,-0.51,-0.24,-0.34
hyu, -5.93,0.11,-6.09,1006.460,-0.031347,-0.061141,-0.018571,49.250546,-123.234413,57.40,1,3,0.813,0.029,-0.019,-0.581,-0.30,-0.52,-0.24,-0.34
hyu, -5.93,0.11,-6.06,1006.457,-0.014615,-0.058915,-0.007884,49.250546,-123.234413,57.40,1,3,0.813,0.029,-0.019,-0.582,-0.30,-0.52,-0.24,-0.34
hyu, -5.93,0.11,-6.06,1006.457,-0.025072,-0.063733,-0.008685,49.250546,-123.234413,57.40,1,3,0.812,0.029,-0.019,-0.582,-0.30,-0.52,-0.24,-0.33
hyu, -5.93,0.11,-6.02,1006.452,-0.006457,-0.063851,-0.029995,49.250546,-123.234413,57.40,1,3,0.812,0.028,-0.019,-0.583,-0.30,-0.52,-0.24,-0.33
hyu, -5.93,0.10,-6.02,1006.452,-0.006122,-0.086574,-0.014328,49.250546,-123.234413,57.40,1,3,0.812,0.029,-0.019,-0.583,-0.30,-0.52,-0.24,-0.33
hyu, -5.93,0.10,-5.93,1006.440,-0.012958,-0.079226,0.005245,49.250546,-123.234413,57.40,1,3,0.812,0.029,-0.020,-0.583,-0.30,-0.52,-0.24,-0.34
hyu, -5.93,0.11,-5.93,1006.440,0.000778,-0.061539,0.017618,49.250546,-123.234413,57.40,1,3,0.812,0.029,-0.020,-0.583,-0.31,-0.52,-0.24,-0.33
hyu, -5.93,0.11,-6.01,1006.450,0.001318,-0.068413,0.014768,49.250546,-123.234413,57.40,1,3,0.811,0.029,-0.020,-0.584,-0.31,-0.51,-0.24,-0.33
hyu, -5.93,0.11,-6.01,1006.450,-0.002839,-0.069856,0.001453,49.250546,-123.234413,57.40,1,3,0.811,0.029,-0.019,-0.584,-0.31,-0.51,-0.23,-0.33
hyu, -5.93,0.11,-6.05,1006.455,0.005103,-0.086044,0.001528,49.250546,-123.234413,57.40,1,3,0.811,0.029,-0.019,-0.584,-0.31,-0.51,-0.23,-0.33
hyu, -5.93,0.11,-6.05,1006.455,-0.001391,-0.092774,-0.001315,49.250546,-123.234413,57.40,1,3,0.811,0.029,-0.019,-0.584,-0.31,-0.51,-0.23,-0.34
hyu, -5.93,0.11,-6.08,1006.458,0.000163,-0.084362,0.002175,49.250546,-123.234413,57.40,1,3,0.812,0.029,-0.019,-0.583,-0.31,-0.50,-0.23,-0.34
hyu, -5.93,0.11,-6.08,1006.458,-0.000546,-0.076395,0.012865,49.250546,-123.234413,57.40,1,3,0.812,0.029,-0.019,-0.583,-0.31,-0.50,-0.23,-0.34
hyu, -5.93,0.11,-6.20,1006.473,-0.001954,-0.058205,-0.001230,49.250546,-123.234413,57.40,1,3,0.812,0.029,-0.019,-0.582,-0.31,-0.50,-0.23,-0.34
hyu, -5.93,0.11,-6.20,1006.473,0.002146,-0.069530,-0.002484,49.250546,-123.234413,57.40,1,3,0.813,0.029,-0.019,-0.581,-0.31,-0.50,-0.23,-0.34
hyu, -5.93,0.11,-6.18,1006.470,-0.004950,-0.082043,-0.002736,49.250546,-123.234413,57.40,1,3,0.813,0.029,-0.019,-0.582,-0.31,-0.50,-0.23,-0.34
hyu, -5.94,0.11,-6.18,1006.470,-0.003040,-0.077048,0.009534,49.250546,-123.234413,57.40,1,3,0.813,0.029,-0.019,-0.582,-0.31,-0.49,-0.23,-0.34
hyu, -5.93,0.11,-6.05,1006.455,-0.003291,-0.069808,0.013378,49.250546,-123.234413,57.40,1,3,0.813,0.029,-0.019,-0.581,-0.31,-0.49,-0.23,-0.34
hyu, -5.93,0.11,-6.05,1006.455,0.002309,-0.077178,-0.003098,49.250546,-123.234413,57.40,1,3,0.814,0.029,-0.019,-0.580,-0.31,-0.49,-0.23,-0.34
hyu, -5.93,0.11,-6.05,1006.455,-0.000422,-0.085196,-0.001273,49.250546,-123.234413,57.40,1,3,0.814,0.029,-0.019,-0.580,-0.31,-0.49,-0.23,-0.34
hyu, -5.93,0.11,-6.05,1006.455,-0.004276,-0.073570,-0.006867,49.250546,-123.234413,57.40,1,3,0.815,0.029,-0.019,-0.579,-0.31,-0.49,-0.23,-0.34
hyu, -5.93,0.10,-6.05,1006.455,-0.012200,-0.082521,-0.025433,49.250546,-123.234413,57.40,1,3,0.815,0.028,-0.019,-0.578,-0.31,-0.49,-0.23,-0.34
hyu, -5.93,0.10,-6.05,1006.455,-0.005762,-0.089330,-0.002862,49.250546,-123.234413,57.40,1,3,0.816,0.028,-0.020,-0.577,-0.31,-0.48,-0.23,-0.35
hyu, -5.93,0.10,-5.95,1006.444,-0.008271,-0.074651,-0.003144,49.250546,-123.234413,57.40,1,3,0.817,0.028,-0.020,-0.576,-0.31,-0.48,-0.23,-0.35
hyu, -5.93,0.10,-5.95,1006.444,-0.010112,-0.071787,-0.010529,49.250546,-123.234413,57.40,1,3,0.818,0.028,-0.020,-0.575,-0.31,-0.48,-0.23,-0.35
hyu, -5.93,0.10,-5.91,1006.439,-0.017083,-0.082135,-0.003873,49.250546,-123.234413,57.40,1,3,0.818,0.028,-0.020,-0.574,-0.31,-0.48,-0.23,-0.35
hyu, -5.93,0.10,-5.91,1006.439,-0.017320,-0.069473,0.000790,49.250546,-123.234413,57.40,1,3,0.819,0.028,-0.020,-0.572,-0.31,-0.48,-0.23,-0.35
hyu, -5.92,0.10,-5.85,1006.431,-0.013763,-0.066596,-0.005803,49.250546,-123.234413,57.40,1,3,0.820,0.027,-0.020,-0.571,-0.31,-0.48,-0.23,-0.35
hyu, -5.92,0.10,-5.85,1006.431,-0.016230,-0.066026,-0.000623,49.250546,-123.234413,57.40,1,3,0.821,0.028,-0.019,-0.570,-0.31,-0.48,-0.23,-0.35
hyu, -5.92,0.10,-5.91,1006.439,-0.023701,-0.063099,-0.001578,49.250546,-123.234413,57.40,1,3,0.821,0.028,-0.019,-0.569,-0.31,-0.49,-0.23,-0.35
hyu, -5.92,0.10,-5.91,1006.439,-0.010205,-0.067652,-0.000915,49.250546,-123.234413,57.40,1,3,0.822,0.028,-0.018,-0.568,-0.31,-0.49,-0.23,-0.34
hyu, -5.92,0.10,-5.91,1006.439,-0.010078,-0.067491,-0.021511,49.250546,-123.234413,57.40,1,3,0.823,0.028,-0.018,-0.567,-0.31,-0.48,-0.23,-0.34
hyu, -5.91,0.10,-5.91,1006.439,-0.008671,-0.067131,-0.006527,49.250546,-123.234413,57.40,1,3,0.824,0.028,-0.018,-0.566,-0.31,-0.48,-0.23,-0.34
hyu, -5.91,0.10,-5.78,1006.422,-0.007865,-0.062260,0.004892,49.250546,-123.234413,57.40,1,3,0.824,0.028,-0.018,-0.565,-0.31,-0.48,-0.23,-0.34
hyu, -5.91,0.10,-5.78,1006.422,-0.001475,-0.057479,-0.005113,49.250546,-123.234413,57.40,1,3,0.825,0.028,-0.018,-0.564,-0.31,-0.48,-0.23,-0.34
hyu, -5.90,0.10,-5.71,1006.414,-0.003619,-0.071874,-0.002697,49.250546,-123.234413,57.40,1,3,0.826,0.028,-0.018,-0.563,-0.31,-0.48,-0.23,-0.34
hyu, -5.90,0.10,-5.71,1006.414,0.004203,-0.077982,0.001050,49.250546,-123.234413,57.40,1,3,0.826,0.029,-0.018,-0.562,-0.31,-0.48,-0.23,-0.34
hyu, -5.89,0.10,-5.75,1006.419,-0.008165,-0.067421,0.004010,49.250546,-123.234413,57.40,1,3,0.827,0.029,-0.018,-0.561,-0.31,-0.48,-0.23,-0.34
hyu, -5.89,0.11,-5.75,1006.419,-0.006570,-0.064168,0.002000,49.250546,-123.234413,57.40,1,3,0.828,0.030,-0.018,-0.560,-0.31,-0.47,-0.23,-0.34
hyu, -5.89,0.10,-5.92,1006.439,-0.001920,-0.065427,-0.019977,49.250546,-123.234413,57.40,1,3,0.829,0.030,-0.018,-0.558,-0.31,-0.47,-0.23,-0.34
hyu, -5.89,0.10,-5.92,1006.439,0.009830,-0.080582,-0.015433,49.250546,-123.234413,57.40,1,3,0.830,0.030,-0.019,-0.557,-0.31,-0.47,-0.23,-0.34
hyu, -5.89,0.10,-6.01,1006.450,-0.005935,-0.078619,0.000049,49.250546,-123.234413,57.40,1,3,0.831,0.031,-0.019,-0.555,-0.31,-0.47,-0.23,-0.34
hyu, -5.89,0.10,-6.01,1006.450,-0.008209,-0.076810,0.016611,49.250546,-123.234413,57.40,1,3,0.832,0.031,-0.019,-0.554,-0.31,-0.47,-0.23,-0.34
hyu, -5.89,0.11,-6.04,1006.454,-0.009679,-0.065367,0.015875,49.250546,-123.234413,57.40,1,3,0.832,0.032,-0.019,-0.553,-0.31,-0.46,-0.23,-0.34
hyu, -5.89,0.11,-6.04,1006.454,-0.009439,-0.061349,0.013538,49.250546,-123.234413,57.40,1,3,0.832,0.032,-0.019,-0.553,-0.31,-0.46,-0.23,-0.34
hyu, -5.89,0.11,-6.12,1006.463,-0.007361,-0.067384,0.008023,49.250546,-123.234413,57.40,1,3,0.833,0.032,-0.018,-0.553,-0.31,-0.46,-0.23,-0.34
hyu, -5.89,0.11,-6.12,1006.463,-0.007935,-0.081524,0.000303,49.250546,-123.234413,57.40,1,3,0.833,0.032,-0.018,-0.552,-0.31,-0.46,-0.23,-0.34
hyu, -5.89,0.11,-6.13,1006.465,-0.019157,-0.089785,0.003590,49.250546,-123.234413,57.40,1,3,0.833,0.033,-0.017,-0.551,-0.31,-0.46,-0.23,-0.34
hyu, -5.89,0.11,-6.13,1006.465,-0.022322,-0.070758,0.009889,49.250546,-123.234413,57.40,1,3,0.834,0.034,-0.017,-0.550,-0.31,-0.46,-0.23,-0.34
hyu, -5.90,0.11,-6.12,1006.465,-0.029626,-0.048470,0.027616,49.250546,-123.234413,57.40,1,3,0.835,0.034,-0.016,-0.550,-0.31,-0.47,-0.23,-0.34
hyu, -5.90,0.11,-6.12,1006.463,-0.024979,-0.048612,0.018828,49.250546,-123.234413,57.40,1,3,0.835,0.034,-0.016,-0.549,-0.31,-0.47,-0.22,-0.33
hyu, -5.90,0.11,-6.08,1006.459,-0.025124,-0.062631,0.011881,49.250546,-123.234413,57.40,1,3,0.835,0.034,-0.016,-0.549,-0.31,-0.47,-0.22,-0.33
hyu, -5.90,0.12,-6.08,1006.459,-0.018273,-0.079539,0.011410,49.250546,-123.234413,57.40,1,3,0.835,0.035,-0.016,-0.549,-0.31,-0.47,-0.22,-0.33
hyu, -5.90,0.12,-6.08,1006.459,-0.011926,-0.072206,0.017076,49.250546,-123.234413,57.40,1,3,0.835,0.035,-0.016,-0.549,-0.31,-0.47,-0.22,-0.33
hyu, -5.90,0.12,-6.09,1006.460,-0.010297,-0.074833,0.009084,49.250546,-123.234413,57.40,1,3,0.835,0.035,-0.017,-0.549,-0.31,-0.47,-0.22,-0.33
hyu, -5.90,0.12,-6.08,1006.451,-0.014196,-0.073567,0.012408,49.250546,-123.234413,57.40,1,3,0.835,0.035,-0.018,-0.548,-0.31,-0.47,-0.22,-0.33
hyu, -5.90,0.12,-6.08,1006.459,-0.010256,-0.072720,0.010361,49.250546,-123.234413,57.40,1,3,0.835,0.035,-0.019,-0.548,-0.31,-0.47,-0.22,-0.33
hyu, -5.90,0.12,-6.08,1006.459,-0.004876,-0.080544,0.007588,49.250546,-123.234413,57.40,1,3,0.836,0.035,-0.019,-0.548,-0.31,-0.47,-0.22,-0.33
hyu, -5.90,0.12,-6.05,1006.455,-0.008441,-0.086422,-0.005538,49.250546,-123.234413,57.40,1,3,0.836,0.034,-0.020,-0.548,-0.31,-0.47,-0.22,-0.34
hyu, -5.90,0.12,-6.05,1006.455,-0.016439,-0.079892,-0.013408,49.250546,-123.234413,57.40,1,3,0.836,0.034,-0.020,-0.547,-0.31,-0.47,-0.22,-0.34
hyu, -5.90,0.11,-6.11,1006.462,-0.015516,-0.075719,-0.019282,49.250546,-123.234413,57.40,1,3,0.836,0.034,-0.020,-0.547,-0.31,-0.47,-0.22,-0.34
hyu, -5.90,0.11,-6.11,1006.462,-0.025192,-0.067255,-0.004971,49.250546,-123.234413,57.40,1,3,0.837,0.034,-0.020,-0.546,-0.31,-0.47,-0.22,-0.34
hyu, -5.90,0.11,-6.11,1006.462,-0.034592,-0.067672,-0.000532,49.250546,-123.234413,57.40,1,3,0.837,0.034,-0.020,-0.546,-0.31,-0.48,-0.22,-0.34
hyu, -5.90,0.11,-6.11,1006.462,-0.029631,-0.061124,-0.011233,49.250546,-123.234413,57.40,1,3,0.837,0.034,-0.020,-0.546,-0.31,-0.48,-0.22,-0.34
hyu, -5.91,0.11,-6.08,1006.459,-0.031259,-0.059963,-0.001286,49.250546,-123.234413,57.40,1,3,0.837,0.035,-0.020,-0.545,-0.31,-0.48,-0.22,-0.33
hyu, -5.91,0.11,-6.08,1006.459,-0.034642,-0.057657,0.001969,49.250546,-123.234413,57.40,1,3,0.837,0.035,-0.020,-0.545,-0.31,-0.49,-0.22,-0.33
hyu, -5.91,0.11,-6.15,1006.467,-0.030345,-0.059856,-0.004175,49.250546,-123.234413,57.40,1,3,0.837,0.035,-0.020,-0.546,-0.31,-0.49,-0.22,-0.33
hyu, -5.91,0.10,-6.15,1006.467,-0.028091,-0.062930,-0.020030,49.250546,-123.234413,57.40,1,3,0.837,0.035,-0.020,-0.546,-0.31,-0.49,-0.22,-0.33
hyu, -5.91,0.10,-6.05,1006.456,-0.024464,-0.076496,-0.017043,49.250546,-123.234413,57.40,1,3,0.836,0.035,-0.020,-0.547,-0.31,-0.49,-0.22,-0.33
hyu, -5.91,0.10,-6.05,1006.456,-0.024695,-0.071424,0.000332,49.250546,-123.234413,57.40,1,3,0.836,0.036,-0.021,-0.547,-0.31,-0.49,-0.22,-0.33
hyu, -5.91,0.10,-6.15,1006.467,-0.022376,-0.055640,0.010450,49.250546,-123.234413,57.40,1,3,0.836,0.036,-0.021,-0.548,-0.31,-0.50,-0.22,-0.33
hyu, -5.91,0.10,-6.15,1006.467,-0.026570,-0.059699,0.006839,49.250546,-123.234413,57.40,1,3,0.835,0.036,-0.021,-0.548,-0.31,-0.50,-0.22,-0.32
hyu, -5.91,0.10,-6.15,1006.467,-0.017320,-0.065028,0.002232,49.250546,-123.234413,57.40,1,3,0.835,0.036,-0.022,-0.549,-0.31,-0.50,-0.22,-0.32
hyu, -5.92,0.10,-6.15,1006.467,-0.018926,-0.060697,0.012098,49.250546,-123.234413,57.40,1,3,0.835,0.037,-0.022,-0.549,-0.31,-0.50,-0.22,-0.32
hyu, -5.92,0.10,-6.15,1006.467,-0.012422,-0.065599,0.016823,49.250546,-123.234413,57.40,1,3,0.834,0.037,-0.022,-0.550,-0.31,-0.50,-0.22,-0.32
hyu, -5.92,0.10,-6.15,1006.467,-0.009748,-0.069038,0.005841,49.250546,-123.234413,57.40,1,3,0.834,0.037,-0.021,-0.551,-0.31,-0.50,-0.22,-0.32
hyu, -5.92,0.10,-6.11,1006.462,-0.000308,-0.071777,-0.003350,49.250546,-123.234413,57.40,1,3,0.833,0.038,-0.021,-0.551,-0.31,-0.50,-0.22,-0.32
hyu, -5.92,0.10,-6.11,1006.462,0.004584,-0.073474,0.001394,49.250546,-123.234413,57.40,1,3,0.833,0.038,-0.021,-0.552,-0.31,-0.49,-0.22,-0.32
hyu, -5.92,0.10,-6.06,1006.456,0.003012,-0.066382,0.001355,49.250546,-123.234413,57.40,1,3,0.832,0.038,-0.021,-0.553,-0.31,-0.49,-0.22,-0.32
hyu, -5.92,0.10,-6.06,1006.456,0.006617,-0.076232,0.001828,49.250546,-123.234413,57.40,1,3,0.832,0.038,-0.022,-0.553,-0.31,-0.49,-0.22,-0.32
hyu, -5.92,0.10,-5.99,1006.448,-0.002260,-0.070939,0.009518,49.250546,-123.234413,57.40,1,3,0.832,0.038,-0.022,-0.553,-0.31,-0.49,-0.22,-0.32
hyu, -5.92,0.10,-5.99,1006.448,-0.001675,-0.065181,0.008155,49.250546,-123.234413,57.40,1,3,0.832,0.038,-0.023,-0.554,-0.31,-0.48,-0.22,-0.32
hyu, -5.92,0.10,-6.08,1006.459,-0.003301,-0.069866,-0.001627,49.250546,-123.234413,57.40,1,3,0.831,0.038,-0.024,-0.554,-0.31,-0.48,-0.22,-0.32
hyu, -5.92,0.10,-6.08,1006.459,0.003707,-0.078626,0.012938,49.250546,-123.234413,57.40,1,3,0.831,0.038,-0.024,-0.554,-0.31,-0.48,-0.22,-0.32
hyu, -5.92,0.11,-6.02,1006.451,-0.000427,-0.073702,0.014545,49.250546,-123.234413,57.40,1,3,0.831,0.038,-0.024,-0.554,-0.31,-0.48,-0.22,-0.32
hyu, -5.92,0.11,-6.02,1006.451,0.004219,-0.076054,0.011203,49.250546,-123.234413,57.40,1,3,0.831,0.038,-0.025,-0.554,-0.31,-0.47,-0.22,-0.32
hyu, -5.92,0.11,-5.93,1006.441,0.005139,-0.066873,0.016515,49.250546,-123.234413,57.40,1,3,0.831,0.038,-0.025,-0.554,-0.31,-0.47,-0.22,-0.32
hyu, -5.92,0.11,-5.93,1006.441,0.005748,-0.076116,0.021168,49.250546,-123.234413,57.40,1,3,0.831,0.038,-0.025,-0.554,-0.31,-0.47,-0.22,-0.32
hyu, -5.91,0.12,-5.88,1006.434,0.007507,-0.071453,0.024448,49.250546,-123.234413,57.40,1,3,0.831,0.037,-0.025,-0.554,-0.31,-0.46,-0.22,-0.32
hyu, -5.91,0.12,-5.88,1006.434,0.004389,-0.074477,0.026328,49.250546,-123.234413,57.40,1,3,0.832,0.037,-0.025,-0.554,-0.31,-0.46,-0.22,-0.32
hyu, -5.91,0.13,-5.88,1006.434,-0.000945,-0.079370,0.019655,49.250546,-123.234413,57.40,1,3,0.832,0.037,-0.026,-0.553,-0.31,-0.46,-0.22,-0.33
hyu, -5.91,0.13,-5.88,1006.434,-0.010651,-0.082578,0.020810,49.250546,-123.234413,57.40,1,3,0.832,0.036,-0.026,-0.553,-0.31,-0.46,-0.22,-0.33
hyu, -5.90,0.14,-5.81,1006.426,-0.014520,-0.073063,0.021851,49.250546,-123.234413,57.40,1,3,0.832,0.035,-0.027,-0.553,-0.31,-0.46,-0.22,-0.33
hyu, -5.90,0.14,-5.81,1006.426,-0.021708,-0.057868,0.022703,49.250546,-123.234413,57.40,1,3,0.832,0.035,-0.027,-0.552,-0.31,-0.46,-0.22,-0.33
hyu, -5.90,0.15,-5.87,1006.433,-0.020262,-0.046298,0.019960,49.250546,-123.234413,57.40,1,3,0.833,0.034,-0.027,-0.552,-0.31,-0.46,-0.22,-0.32
hyu, -5.89,0.15,-5.87,1006.433,-0.024145,-0.046999,-0.000471,49.250546,-123.234413,57.40,1,3,0.833,0.034,-0.028,-0.552,-0.31,-0.46,-0.22,-0.32
hyu, -5.89,0.15,-5.78,1006.423,-0.022292,-0.050241,-0.005756,49.250546,-123.234413,57.40,1,3,0.833,0.033,-0.028,-0.552,-0.31,-0.46,-0.21,-0.31
hyu, -5.88,0.14,-5.78,1006.423,-0.021570,-0.050827,-0.022308,49.250546,-123.234413,57.40,1,3,0.832,0.033,-0.028,-0.553,-0.31,-0.47,-0.21,-0.31
hyu, -5.88,0.14,-5.80,1006.425,-0.013096,-0.061333,-0.028562,49.250546,-123.234413,57.40,1,3,0.832,0.032,-0.029,-0.553,-0.31,-0.47,-0.21,-0.31
hyu, -5.88,0.13,-5.80,1006.425,-0.012261,-0.048121,-0.038834,49.250546,-123.234413,57.40,1,3,0.833,0.032,-0.030,-0.552,-0.31,-0.47,-0.21,-0.30
hyu, -5.87,0.13,-5.81,1006.427,-0.012653,-0.051539,-0.030400,49.250546,-123.234413,57.40,1,3,0.833,0.032,-0.032,-0.551,-0.31,-0.47,-0.21,-0.30
hyu, -5.87,0.13,-5.81,1006.427,-0.016331,-0.050533,-0.011883,49.250546,-123.234413,57.40,1,3,0.834,0.032,-0.033,-0.550,-0.31,-0.47,-0.21,-0.30
hyu, -5.87,0.13,-5.82,1006.428,-0.019353,-0.042526,-0.007212,49.250546,-123.234413,57.40,1,3,0.835,0.032,-0.034,-0.549,-0.31,-0.47,-0.21,-0.29
hyu, -5.87,0.13,-5.82,1006.428,-0.008815,-0.055460,-0.009243,49.250546,-123.234413,57.40,1,3,0.835,0.032,-0.035,-0.548,-0.31,-0.47,-0.21,-0.29
hyu, -5.86,0.13,-5.95,1006.443,-0.000709,-0.068171,-0.006351,49.250546,-123.234413,57.40,1,3,0.836,0.032,-0.036,-0.547,-0.31,-0.46,-0.21,-0.29
hyu, -5.86,0.13,-5.95,1006.443,-0.010583,-0.075213,-0.005158,49.250546,-123.234413,57.40,1,3,0.837,0.032,-0.036,-0.545,-0.31,-0.46,-0.21,-0.29
hyu, -5.86,0.13,-5.96,1006.444,-0.004788,-0.080536,0.002121,49.250546,-123.234413,57.40,1,3,0.838,0.032,-0.035,-0.544,-0.31,-0.46,-0.21,-0.29
hyu, -5.86,0.12,-5.96,1006.444,-0.000965,-0.082537,-0.006458,49.250546,-123.234413,57.40,1,3,0.839,0.033,-0.035,-0.542,-0.31,-0.46,-0.21,-0.30
hyu, -5.86,0.12,-5.96,1006.444,0.005592,-0.076474,-0.006024,49.250546,-123.234413,57.40,1,3,0.840,0.033,-0.035,-0.541,-0.31,-0.46,-0.21,-0.30
hyu, -5.86,0.12,-5.96,1006.444,-0.009233,-0.066050,-0.004349,49.250546,-123.234413,57.40,1,3,0.841,0.033,-0.035,-0.539,-0.31,-0.46,-0.21,-0.30
hyu, -5.86,0.12,-5.99,1006.448,-0.001395,-0.072843,-0.001313,49.250546,-123.234413,57.40,1,3,0.842,0.033,-0.035,-0.537,-0.31,-0.45,-0.21,-0.30
hyu, -5.86,0.12,-5.99,1006.448,-0.001731,-0.075803,-0.001665,49.250546,-123.234413,57.40,1,3,0.843,0.033,-0.035,-0.535,-0.31,-0.45,-0.21,-0.30
hyu, -5.86,0.12,-5.99,1006.448,-0.001817,-0.076144,0.000023,49.250546,-123.234413,57.40,1,3,0.844,0.032,-0.035,-0.534,-0.31,-0.45,-0.21,-0.30
hyu, -5.86,0.12,-5.99,1006.448,-0.001116,-0.080667,-0.007870,49.250546,-123.234413,57.40,1,3,0.846,0.032,-0.035,-0.532,-0.30,-0.45,-0.21,-0.30
hyu, -5.86,0.12,-5.97,1006.446,-0.000480,-0.080443,0.001669,49.250546,-123.234413,57.40,1,3,0.847,0.032,-0.034,-0.530,-0.30,-0.45,-0.21,-0.30
hyu, -5.86,0.12,-5.97,1006.446,-0.003116,-0.086030,-0.007402,49.250546,-123.234413,57.40,1,3,0.848,0.032,-0.034,-0.528,-0.30,-0.44,-0.21,-0.31
hyu, -5.86,0.12,-5.95,1006.443,-0.002546,-0.070485,-0.005248,49.250546,-123.234413,57.40,1,3,0.849,0.032,-0.033,-0.526,-0.30,-0.44,-0.21,-0.31
hyu, -5.86,0.12,-5.95,1006.443,-0.006809,-0.059365,-0.002610,49.250546,-123.234413,57.40,1,3,0.850,0.032,-0.032,-0.524,-0.30,-0.44,-0.21,-0.30
hyu, -5.86,0.11,-5.95,1006.443,-0.003663,-0.062451,-0.005468,49.250546,-123.234413,57.40,1,3,0.851,0.033,-0.032,-0.523,-0.30,-0.44,-0.21,-0.30
hyu, -5.86,0.11,-5.95,1006.443,0.000115,-0.069256,-0.003403,49.250546,-123.234413,57.40,1,3,0.852,0.033,-0.031,-0.521,-0.30,-0.44,-0.21,-0.30
hyu, -5.86,0.11,-6.02,1006.451,-0.002652,-0.074411,-0.011357,49.250546,-123.234413,57.40,1,3,0.853,0.033,-0.032,-0.520,-0.30,-0.44,-0.21,-0.30
hyu, -5.86,0.11,-6.02,1006.451,-0.000644,-0.072261,0.007125,49.250546,-123.234413,57.40,1,3,0.854,0.034,-0.032,-0.518,-0.30,-0.43,-0.20,-0.30
hyu, -5.86,0.11,-6.06,1006.456,-0.001054,-0.072116,0.013340,49.250546,-123.234413,57.40,1,3,0.855,0.034,-0.033,-0.516,-0.30,-0.43,-0.20,-0.30
hyu, -5.86,0.12,-6.06,1006.456,-0.009975,-0.077060,0.010529,49.250546,-123.234413,57.40,1,3,0.856,0.034,-0.033,-0.515,-0.30,-0.43,-0.20,-0.31
hyu, -5.86,0.12,-6.10,1006.461,-0.011329,-0.077407,0.027580,49.250546,-123.234413,57.40,1,3,0.857,0.034,-0.033,-0.513,-0.30,-0.43,-0.20,-0.31
hyu, -5.86,0.12,-6.10,1006.461,-0.012985,-0.074197,0.022048,49.250546,-123.234413,57.40,1,3,0.858,0.034,-0.033,-0.512,-0.30,-0.43,-0.20,-0.31
hyu, -5.86,0.12,-6.18,1006.471,-0.003309,-0.084808,0.010790,49.250546,-123.234413,57.40,1,3,0.859,0.034,-0.033,-0.510,-0.30,-0.43,-0.20,-0.31
hyu, -5.87,0.12,-6.18,1006.471,-0.010549,-0.090959,-0.010245,49.250546,-123.234413,57.40,1,3,0.860,0.033,-0.032,-0.508,-0.30,-0.43,-0.20,-0.31
hyu, -5.87,0.12,-6.19,1006.472,-0.012557,-0.081606,-0.002443,49.250546,-123.234413,57.40,1,3,0.861,0.033,-0.032,-0.507,-0.30,-0.43,-0.20,-0.32
hyu, -5.87,0.11,-6.19,1006.472,-0.016619,-0.070935,-0.003095,49.250546,-123.234413,57.40,1,3,0.862,0.033,-0.031,-0.505,-0.30,-0.43,-0.20,-0.32
hyu, -5.87,0.11,-6.21,1006.474,-0.012088,-0.061939,-0.001764,49.250546,-123.234413,57.40,1,3,0.863,0.033,-0.031,-0.503,-0.30,-0.43,-0.20,-0.32
hyu, -5.88,0.11,-6.21,1006.474,-0.010861,-0.070782,0.006720,49.250546,-123.234413,57.40,1,3,0.864,0.033,-0.031,-0.502,-0.30,-0.43,-0.20,-0.32
hyu, -5.88,0.11,-6.23,1006.477,-0.017678,-0.061826,0.010303,49.250546,-123.234413,57.40,1,3,0.865,0.033,-0.032,-0.500,-0.30,-0.43,-0.20,-0.31
hyu, -5.88,0.11,-6.23,1006.477,-0.003131,-0.067559,0.002668,49.250546,-123.234413,57.40,1,3,0.865,0.033,-0.032,-0.499,-0.30,-0.43,-0.20,-0.31
hyu, -5.89,0.11,-6.28,1006.482,0.003332,-0.088114,0.004256,49.250546,-123.234413,57.40,1,3,0.866,0.033,-0.032,-0.498,-0.29,-0.43,-0.20,-0.32
hyu, -5.89,0.11,-6.28,1006.482,0.006607,-0.080851,-0.002546,49.250546,-123.234413,57.40,1,3,0.867,0.032,-0.033,-0.497,-0.29,-0.43,-0.20,-0.32
hyu, -5.89,0.11,-6.32,1006.487,0.001525,-0.074869,0.015085,49.250546,-123.234413,57.40,1,3,0.868,0.032,-0.033,-0.495,-0.29,-0.42,-0.20,-0.32
hyu, -5.90,0.11,-6.32,1006.487,0.006366,-0.070626,0.008988,49.250546,-123.234413,57.40,1,3,0.868,0.032,-0.033,-0.494,-0.29,-0.42,-0.20,-0.32
hyu, -5.90,0.11,-6.37,1006.494,0.006016,-0.073961,0.009318,49.250546,-123.234413,57.40,1,3,0.869,0.032,-0.033,-0.492,-0.29,-0.42,-0.20,-0.32
hyu, -5.91,0.11,-6.37,1006.494,0.002513,-0.078398,0.009562,49.250546,-123.234413,57.40,1,3,0.870,0.032,-0.032,-0.491,-0.29,-0.41,-0.20,-0.32
hyu, -5.91,0.10,-6.41,1006.499,0.002041,-0.074117,-0.004174,49.250546,-123.234413,57.40,1,3,0.871,0.032,-0.032,-0.489,-0.29,-0.41,-0.20,-0.32
hyu, -5.92,0.10,-6.41,1006.499,0.004061,-0.080960,-0.015980,49.250546,-123.234413,57.40,1,3,0.872,0.032,-0.032,-0.488,-0.29,-0.41,-0.20,-0.33
hyu, -5.92,0.09,-6.43,1006.500,0.007511,-0.076502,-0.018782,49.250546,-123.234413,57.40,1,3,0.873,0.031,-0.032,-0.486,-0.29,-0.41,-0.20,-0.33
hyu, -5.93,0.09,-6.43,1006.500,0.002377,-0.073520,-0.003704,49.250546,-123.234413,57.40,1,3,0.874,0.031,-0.032,-0.485,-0.29,-0.40,-0.21,-0.33
hyu, -5.93,0.09,-6.39,1006.495,0.002306,-0.068364,-0.003334,49.250546,-123.234413,57.40,1,3,0.874,0.031,-0.032,-0.483,-0.29,-0.40,-0.21,-0.33
hyu, -5.94,0.08,-6.39,1006.495,-0.003123,-0.079170,0.001579,49.250546,-123.234413,57.40,1,4,0.875,0.031,-0.032,-0.482,-0.29,-0.40,-0.21,-0.33
hyu, -5.94,0.08,-6.34,1006.490,0.001118,-0.073181,0.003527,49.250546,-123.234413,57.40,1,4,0.876,0.031,-0.032,-0.480,-0.29,-0.40,-0.21,-0.33
hyu, -5.95,0.08,-6.34,1006.490,-0.001092,-0.059484,0.010000,49.250546,-123.234413,57.40,1,4,0.877,0.031,-0.032,-0.479,-0.29,-0.40,-0.21,-0.33
hyu, -5.95,0.08,-6.25,1006.479,0.004880,-0.064858,0.001277,49.250546,-123.234413,57.40,1,4,0.878,0.031,-0.032,-0.477,-0.29,-0.39,-0.21,-0.33
hyu, -5.95,0.08,-6.25,1006.479,0.007881,-0.068225,-0.007890,49.250546,-123.234413,57.40,1,4,0.878,0.031,-0.032,-0.476,-0.28,-0.39,-0.21,-0.33
hyu, -5.96,0.08,-6.17,1006.469,-0.000814,-0.070846,-0.005546,49.250546,-123.234413,57.40,1,4,0.879,0.031,-0.032,-0.474,-0.28,-0.39,-0.21,-0.33
hyu, -5.96,0.07,-6.17,1006.469,0.003764,-0.071991,-0.011580,49.250546,-123.234413,57.40,1,4,0.880,0.031,-0.032,-0.473,-0.28,-0.39,-0.21,-0.33
hyu, -5.96,0.07,-6.22,1006.476,0.009051,-0.075307,-0.004594,49.250546,-123.234413,57.40,1,4,0.881,0.032,-0.032,-0.471,-0.28,-0.38,-0.21,-0.33
hyu, -5.96,0.07,-6.22,1006.476,0.004771,-0.066326,0.017582,49.250546,-123.234413,57.40,1,4,0.882,0.032,-0.032,-0.470,-0.28,-0.38,-0.21,-0.33
hyu, -5.96,0.08,-6.24,1006.477,0.009343,-0.059667,0.021304,49.250546,-123.234413,57.40,1,4,0.882,0.032,-0.032,-0.468,-0.28,-0.38,-0.21,-0.33
hyu, -5.97,0.08,-6.24,1006.477,0.009538,-0.070601,-0.001068,49.250546,-123.234413,57.40,1,4,0.883,0.031,-0.031,-0.467,-0.28,-0.37,-0.21,-0.33
hyu, -5.97,0.07,-6.25,1006.479,0.013502,-0.082172,-0.006930,49.250546,-123.234413,57.40,1,4,0.884,0.031,-0.031,-0.465,-0.28,-0.37,-0.21,-0.33
hyu, -5.97,0.07,-6.25,1006.479,0.016327,-0.079310,0.001466,49.250546,-123.234413,57.40,1,4,0.885,0.031,-0.031,-0.464,-0.28,-0.37,-0.21,-0.33
hyu, -5.98,0.07,-6.24,1006.478,0.017529,-0.070665,-0.002630,49.250546,-123.234413,57.40,1,4,0.886,0.031,-0.031,-0.462,-0.28,-0.36,-0.21,-0.33
hyu, -5.98,0.07,-6.24,1006.478,0.013926,-0.064157,0.002346,49.250546,-123.234413,57.40,1,4,0.887,0.032,-0.031,-0.460,-0.27,-0.36,-0.21,-0.33
hyu, -5.98,0.07,-6.05,1006.455,0.013155,-0.070122,-0.017535,49.250546,-123.234413,57.40,1,4,0.887,0.032,-0.031,-0.459,-0.27,-0.35,-0.21,-0.33
hyu, -5.98,0.07,-6.05,1006.455,0.015131,-0.079964,-0.007604,49.250546,-123.234413,57.40,1,4,0.888,0.032,-0.031,-0.457,-0.27,-0.35,-0.21,-0.33
hyu, -5.98,0.07,-6.09,1006.460,0.010468,-0.067291,0.015889,49.250546,-123.234413,57.40,1,4,0.889,0.032,-0.031,-0.455,-0.27,-0.35,-0.21,-0.33
hyu, -5.98,0.07,-6.09,1006.460,0.012631,-0.055467,0.022243,49.250546,-123.234413,57.40,1,4,0.890,0.032,-0.031,-0.453,-0.27,-0.34,-0.21,-0.33
hyu, -5.98,0.07,-6.02,1006.452,0.015800,-0.055968,0.001556,49.250546,-123.234413,57.40,1,4,0.891,0.032,-0.031,-0.452,-0.27,-0.34,-0.21,-0.33
hyu, -5.98,0.07,-6.02,1006.452,0.015135,-0.064379,-0.017236,49.250546,-123.234413,57.40,1,4,0.892,0.032,-0.030,-0.450,-0.27,-0.33,-0.21,-0.33
hyu, -5.98,0.07,-5.92,1006.440,0.010398,-0.068921,-0.005812,49.250546,-123.234413,57.40,1,4,0.893,0.032,-0.030,-0.448,-0.27,-0.33,-0.21,-0.33
hyu, -5.97,0.07,-5.92,1006.440,0.009813,-0.064558,-0.009204,49.250546,-123.234413,57.40,1,4,0.894,0.032,-0.030,-0.447,-0.26,-0.33,-0.21,-0.32
hyu, -5.97,0.07,-5.94,1006.442,0.014126,-0.072004,-0.003212,49.250546,-123.234413,57.40,1,4,0.894,0.032,-0.030,-0.445,-0.26,-0.32,-0.21,-0.32
hyu, -5.97,0.07,-5.94,1006.442,0.015118,-0.071315,-0.000652,49.250546,-123.234413,57.40,1,4,0.895,0.033,-0.030,-0.443,-0.26,-0.32,-0.21,-0.33
hyu, -5.97,0.07,-6.02,1006.451,0.004778,-0.055148,0.014959,49.250546,-123.234413,57.40,1,4,0.896,0.033,-0.030,-0.442,-0.26,-0.32,-0.21,-0.32
hyu, -5.97,0.07,-6.02,1006.451,0.003477,-0.068256,0.006068,49.250546,-123.234413,57.40,1,4,0.897,0.033,-0.030,-0.441,-0.26,-0.32,-0.21,-0.32
hyu, -5.97,0.07,-6.03,1006.453,0.004600,-0.077149,-0.001744,49.250546,-123.234413,57.40,1,4,0.897,0.033,-0.030,-0.439,-0.26,-0.31,-0.21,-0.32
hyu, -5.97,0.07,-6.03,1006.453,0.007039,-0.071794,0.001322,49.250546,-123.234413,57.40,1,4,0.898,0.033,-0.030,-0.438,-0.26,-0.31,-0.21,-0.32
hyu, -5.97,0.07,-6.08,1006.458,0.004639,-0.057732,0.003026,49.250546,-123.234413,57.40,1,4,0.899,0.033,-0.029,-0.436,-0.25,-0.31,-0.21,-0.32
hyu, -5.97,0.07,-6.08,1006.458,0.004808,-0.058421,-0.009062,49.250546,-123.234413,57.40,1,4,0.900,0.033,-0.029,-0.435,-0.25,-0.31,-0.21,-0.32
hyu, -5.97,0.07,-6.13,1006.465,0.017420,-0.076214,-0.008702,49.250546,-123.234413,57.40,1,4,0.900,0.034,-0.029,-0.433,-0.25,-0.30,-0.21,-0.32
hyu, -5.97,0.07,-6.13,1006.465,0.013459,-0.065211,0.004573,49.250546,-123.234413,57.40,1,4,0.901,0.034,-0.029,-0.432,-0.25,-0.30,-0.21,-0.32
hyu, -5.97,0.07,-6.17,1006.470,0.008916,-0.056709,0.010117,49.250546,-123.234413,57.40,1,4,0.902,0.034,-0.028,-0.430,-0.25,-0.30,-0.21,-0.32
hyu, -5.97,0.07,-6.17,1006.470,0.007400,-0.059466,0.016935,49.250546,-123.234413,57.40,1,4,0.902,0.034,-0.028,-0.429,-0.25,-0.30,-0.21,-0.32
hyu, -5.98,0.07,-6.24,1006.478,0.012265,-0.062562,0.002205,49.250546,-123.234413,57.40,1,4,0.903,0.034,-0.028,-0.427,-0.25,-0.29,-0.21,-0.31
hyu, -5.98,0.07,-6.24,1006.478,0.011821,-0.069997,-0.008697,49.250546,-123.234413,57.40,1,4,0.904,0.034,-0.028,-0.426,-0.24,-0.29,-0.21,-0.31
hyu, -5.98,0.07,-6.21,1006.474,0.013910,-0.068935,-0.001144,49.250546,-123.234413,57.40,1,4,0.904,0.034,-0.028,-0.424,-0.24,-0.29,-0.21,-0.31
hyu, -5.98,0.07,-6.21,1006.474,0.015220,-0.065665,-0.004836,49.250546,-123.234413,57.40,1,4,0.905,0.034,-0.028,-0.423,-0.24,-0.28,-0.21,-0.31
hyu, -5.98,0.07,-6.18,1006.471,0.016161,-0.071626,-0.000326,49.250546,-123.234413,57.40,1,4,0.906,0.034,-0.028,-0.421,-0.24,-0.28,-0.21,-0.31
hyu, -5.99,0.07,-6.18,1006.471,0.016101,-0.055068,0.001782,49.250546,-123.234413,57.40,1,4,0.907,0.035,-0.028,-0.419,-0.24,-0.28,-0.21,-0.31
hyu, -5.99,0.07,-6.07,1006.458,0.001930,-0.057107,0.012766,49.250546,-123.234413,57.40,1,4,0.908,0.035,-0.028,-0.417,-0.24,-0.27,-0.21,-0.31
hyu, -5.99,0.07,-6.07,1006.458,0.010402,-0.055402,-0.002280,49.250546,-123.234413,57.40,1,4,0.908,0.034,-0.027,-0.416,-0.23,-0.27,-0.21,-0.31
hyu, -5.99,0.06,-6.10,1006.461,0.021394,-0.056927,-0.012852,49.250546,-123.234413,57.40,1,4,0.909,0.034,-0.027,-0.414,-0.23,-0.27,-0.21,-0.31
hyu, -5.99,0.06,-6.10,1006.461,0.013815,-0.059353,-0.005509,49.250546,-123.234413,57.40,1,4,0.910,0.035,-0.026,-0.413,-0.23,-0.27,-0.21,-0.30
hyu, -5.99,0.06,-6.10,1006.461,0.016925,-0.055461,0.002667,49.250546,-123.234413,57.40,1,4,0.910,0.035,-0.026,-0.411,-0.23,-0.26,-0.21,-0.30
hyu, -5.99,0.06,-6.10,1006.461,0.027700,-0.050741,0.003897,49.250546,-123.234413,57.40,1,4,0.911,0.035,-0.026,-0.410,-0.23,-0.26,-0.21,-0.30
hyu, -5.99,0.06,-6.06,1006.456,0.029934,-0.057440,-0.001141,49.250546,-123.234413,57.40,1,4,0.912,0.035,-0.026,-0.408,-0.23,-0.25,-0.21,-0.30
hyu, -5.99,0.06,-6.06,1006.456,0.031029,-0.054204,0.002984,49.250546,-123.234413,57.40,1,4,0.913,0.035,-0.026,-0.406,-0.22,-0.24,-0.21,-0.29
hyu, -5.99,0.06,-6.03,1006.453,0.031539,-0.059883,0.000784,49.250546,-123.234413,57.40,1,4,0.913,0.035,-0.026,-0.405,-0.22,-0.24,-0.21,-0.29
hyu, -5.99,0.06,-6.03,1006.453,0.033681,-0.060203,-0.004462,49.250546,-123.234413,57.40,1,4,0.914,0.035,-0.026,-0.403,-0.22,-0.23,-0.20,-0.29
hyu, -5.99,0.06,-6.09,1006.460,0.039749,-0.061134,0.000603,49.250546,-123.234413,57.40,1,4,0.915,0.035,-0.026,-0.401,-0.22,-0.23,-0.20,-0.29
hyu, -5.99,0.07,-6.09,1006.460,0.030522,-0.067985,0.017448,49.250546,-123.234413,57.40,1,4,0.916,0.035,-0.025,-0.399,-0.22,-0.22,-0.20,-0.29
hyu, -5.99,0.07,-6.09,1006.460,0.030810,-0.054694,0.013786,49.250546,-123.234413,57.40,1,4,0.917,0.035,-0.025,-0.398,-0.22,-0.21,-0.20,-0.29
hyu, -5.99,0.07,-6.09,1006.460,0.041592,-0.069650,-0.000686,49.250546,-123.234413,57.40,1,4,0.917,0.035,-0.024,-0.396,-0.21,-0.21,-0.20,-0.29
hyu, -5.99,0.07,-6.14,1006.460,0.042551,-0.072653,-0.012108,49.250546,-123.234413,57.40,1,4,0.918,0.035,-0.024,-0.394,-0.21,-0.20,-0.20,-0.29
hyu, -5.99,0.07,-6.14,1006.466,0.030837,-0.072063,0.006623,49.250546,-123.234413,57.40,1,4,0.919,0.035,-0.024,-0.391,-0.21,-0.19,-0.20,-0.29
hyu, -5.99,0.07,-6.12,1006.466,0.023491,-0.050394,0.009722,49.250546,-123.234413,57.40,1,4,0.920,0.035,-0.024,-0.389,-0.21,-0.19,-0.20,-0.28
hyu, -5.99,0.07,-6.18,1006.471,0.018144,-0.051381,0.016068,49.250546,-123.234413,57.40,1,4,0.921,0.035,-0.023,-0.387,-0.20,-0.19,-0.20,-0.28
hyu, -5.99,0.07,-6.13,1006.471,0.016180,-0.057898,0.003289,49.250546,-123.234413,57.40,1,4,0.922,0.035,-0.023,-0.385,-0.20,-0.18,-0.20,-0.28
hyu, -5.99,0.07,-6.13,1006.465,0.020925,-0.061335,-0.003688,49.250546,-123.234413,57.40,1,4,0.922,0.035,-0.023,-0.384,-0.20,-0.18,-0.20,-0.28
hyu, -6.00,0.07,-6.13,1006.465,0.027818,-0.066638,0.008029,49.250546,-123.234413,57.40,1,4,0.923,0.035,-0.023,-0.382,-0.20,-0.17,-0.20,-0.28
hyu, -6.00,0.07,-6.17,1006.470,0.017652,-0.050033,0.003913,49.250546,-123.234413,57.40,1,4,0.924,0.035,-0.022,-0.380,-0.20,-0.17,-0.20,-0.27
hyu, -6.00,0.07,-6.17,1006.470,0.023783,-0.057622,-0.018811,49.250546,-123.234413,57.40,1,4,0.925,0.035,-0.023,-0.379,-0.19,-0.17,-0.20,-0.27
hyu, -6.00,0.06,-6.13,1006.465,0.023812,-0.052332,-0.021959,49.250546,-123.234413,57.40,1,4,0.925,0.035,-0.023,-0.377,-0.19,-0.16,-0.20,-0.27
hyu, -6.00,0.06,-6.13,1006.465,0.027986,-0.052357,-0.016226,49.250546,-123.234413,57.40,1,4,0.926,0.035,-0.023,-0.376,-0.19,-0.16,-0.20,-0.27
hyu, -6.00,0.06,-6.08,1006.458,0.035766,-0.060309,-0.011593,49.250546,-123.234413,57.40,1,4,0.927,0.035,-0.023,-0.374,-0.19,-0.15,-0.20,-0.27
hyu, -6.00,0.06,-6.08,1006.458,0.029264,-0.056524,-0.013061,49.250546,-123.234413,57.40,1,4,0.927,0.036,-0.023,-0.372,-0.18,-0.15,-0.20,-0.26
hyu, -6.00,0.06,-6.03,1006.453,0.039212,-0.056642,-0.001819,49.250546,-123.234413,57.40,1,4,0.928,0.036,-0.023,-0.371,-0.18,-0.14,-0.19,-0.26
hyu, -6.00,0.06,-6.03,1006.453,0.032956,-0.056180,0.008506,49.250546,-123.234413,57.40,1,4,0.928,0.036,-0.023,-0.369,-0.18,-0.14,-0.19,-0.26
hyu, -6.00,0.06,-6.13,1006.465,0.034449,-0.051097,-0.003990,49.250546,-123.234413,57.40,1,4,0.929,0.036,-0.023,-0.368,-0.18,-0.13,-0.19,-0.26
hyu, -6.00,0.05,-6.13,1006.465,0.045734,-0.064911,-0.024418,49.250546,-123.234413,57.40,1,4,0.930,0.036,-0.022,-0.366,-0.17,-0.12,-0.19,-0.26
hyu, -6.00,0.05,-6.10,1006.462,0.047440,-0.085339,-0.028690,49.250546,-123.234413,57.40,1,4,0.930,0.036,-0.021,-0.364,-0.17,-0.12,-0.19,-0.26
hyu, -6.00,0.04,-6.10,1006.462,0.046231,-0.078105,-0.009465,49.250546,-123.234413,57.40,1,4,0.931,0.036,-0.021,-0.362,-0.17,-0.11,-0.19,-0.26
hyu, -6.00,0.04,-6.19,1006.471,0.046289,-0.071518,-0.017466,49.250546,-123.234413,57.40,1,4,0.932,0.037,-0.019,-0.360,-0.17,-0.10,-0.19,-0.26
hyu, -6.01,0.04,-6.19,1006.471,0.054107,-0.083208,-0.025840,49.250546,-123.234413,57.40,1,4,0.933,0.037,-0.018,-0.358,-0.16,-0.09,-0.19,-0.26
hyu, -6.01,0.03,-6.17,1006.470,0.056036,-0.093145,-0.031627,49.250546,-123.234413,57.40,1,4,0.934,0.037,-0.016,-0.356,-0.16,-0.08,-0.19,-0.27
hyu, -6.01,0.03,-6.17,1006.470,0.054048,-0.090104,-0.019515,49.250546,-123.234413,57.40,1,4,0.934,0.038,-0.014,-0.354,-0.16,-0.08,-0.19,-0.27
hyu, -6.01,0.02,-6.25,1006.480,0.025810,-0.074079,-0.007872,49.250546,-123.234413,57.40,1,4,0.935,0.038,-0.012,-0.352,-0.16,-0.07,-0.19,-0.27
hyu, -6.02,0.02,-6.25,1006.480,0.024666,-0.067563,-0.001179,49.250546,-123.234413,57.40,1,4,0.936,0.038,-0.010,-0.350,-0.15,-0.07,-0.19,-0.27
hyu, -6.02,0.02,-6.23,1006.476,0.030907,-0.061411,0.005881,49.250546,-123.234413,57.40,1,4,0.936,0.039,-0.008,-0.349,-0.15,-0.07,-0.19,-0.27
hyu, -6.02,0.02,-6.23,1006.476,0.038388,-0.071177,0.000221,49.250546,-123.234413,57.40,1,4,0.937,0.039,-0.007,-0.348,-0.15,-0.06,-0.19,-0.27
hyu, -6.02,0.03,-6.14,1006.466,0.038806,-0.088416,0.024688,49.250546,-123.234413,57.40,1,4,0.937,0.040,-0.006,-0.347,-0.14,-0.05,-0.19,-0.28
hyu, -6.02,0.03,-6.14,1006.466,0.016232,-0.089404,0.042876,49.250546,-123.234413,57.40,1,4,0.938,0.041,-0.006,-0.345,-0.14,-0.05,-0.19,-0.28
hyu, -6.02,0.04,-6.16,1006.468,0.002858,-0.066083,0.064709,49.250546,-123.234413,57.40,1,4,0.938,0.042,-0.007,-0.343,-0.14,-0.05,-0.19,-0.28
hyu, -6.03,0.05,-6.16,1006.468,-0.007554,-0.041993,0.061921,49.250546,-123.234413,57.40,1,4,0.939,0.042,-0.008,-0.342,-0.14,-0.06,-0.19,-0.28
hyu, -6.03,0.06,-6.16,1006.468,0.009450,-0.049402,0.015628,49.250546,-123.234413,57.40,1,4,0.939,0.041,-0.009,-0.341,-0.13,-0.06,-0.19,-0.27
hyu, -6.03,0.06,-6.16,1006.468,0.025320,-0.076642,0.003751,49.250546,-123.234413,57.40,1,4,0.939,0.041,-0.010,-0.340,-0.13,-0.05,-0.19,-0.27
hyu, -6.03,0.06,-6.21,1006.474,0.025852,-0.093063,-0.004573,49.250546,-123.234413,57.40,1,4,0.940,0.041,-0.011,-0.338,-0.13,-0.05,-0.19,-0.28
hyu, -6.03,0.06,-6.21,1006.474,0.008470,-0.078336,0.035842,49.250546,-123.234413,57.40,1,4,0.941,0.041,-0.012,-0.336,-0.13,-0.05,-0.19,-0.28
hyu, -6.03,0.07,-6.16,1006.468,-0.009103,-0.049841,0.042305,49.250546,-123.234413,57.40,1,4,0.942,0.041,-0.012,-0.334,-0.12,-0.05,-0.19,-0.28
hyu, -6.03,0.08,-6.16,1006.468,-0.012141,-0.043589,0.048114,49.250546,-123.234413,57.40,1,4,0.942,0.040,-0.011,-0.332,-0.12,-0.06,-0.19,-0.27
hyu, -6.03,0.07,-6.25,1006.480,-0.004449,-0.052135,0.000921,49.250546,-123.234413,57.40,1,4,0.943,0.039,-0.009,-0.331,-0.12,-0.06,-0.19,-0.27
hyu, -6.04,0.07,-6.25,1006.480,0.019844,-0.081758,-0.031275,49.250546,-123.234413,57.40,1,4,0.943,0.038,-0.008,-0.330,-0.12,-0.06,-0.19,-0.27
hyu, -6.04,0.06,-6.18,1006.471,0.025509,-0.093497,-0.053955,49.250546,-123.234413,57.40,1,4,0.943,0.037,-0.008,-0.329,-0.11,-0.06,-0.19,-0.28
hyu, -6.04,0.05,-6.18,1006.471,0.024689,-0.074602,-0.061106,49.250546,-123.234413,57.40,1,4,0.944,0.037,-0.007,-0.328,-0.11,-0.05,-0.19,-0.28
hyu, -6.04,0.04,-6.16,1006.468,0.020814,-0.062586,-0.045510,49.250546,-123.234413,57.40,1,4,0.944,0.037,-0.008,-0.327,-0.11,-0.05,-0.19,-0.28
hyu, -6.04,0.04,-6.16,1006.468,0.022952,-0.057210,-0.013670,49.250546,-123.234413,57.40,1,4,0.944,0.038,-0.008,-0.327,-0.11,-0.05,-0.19,-0.28
hyu, -6.04,0.04,-6.09,1006.460,0.036536,-0.069494,-0.001154,49.250546,-123.234413,57.40,1,4,0.944,0.037,-0.009,-0.327,-0.11,-0.04,-0.18,-0.28
hyu, -6.04,0.03,-6.09,1006.460,0.064564,-0.080955,-0.024213,49.250546,-123.234413,57.40,1,4,0.944,0.037,-0.009,-0.327,-0.10,-0.04,-0.18,-0.28
hyu, -6.04,0.03,-6.19,1006.471,0.077371,-0.085495,-0.034015,49.250546,-123.234413,57.40,1,4,0.944,0.037,-0.009,-0.326,-0.10,-0.02,-0.18,-0.28
hyu, -6.04,0.02,-6.19,1006.471,0.066848,-0.072318,-0.029509,49.250546,-123.234413,57.40,1,4,0.945,0.037,-0.009,-0.326,-0.10,-0.01,-0.18,-0.28
hyu, -6.04,0.02,-6.16,1006.468,0.063014,-0.073212,-0.023713,49.250546,-123.234413,57.40,1,4,0.945,0.037,-0.008,-0.325,-0.10,-0.01,-0.18,-0.29
hyu, -6.05,0.01,-6.16,1006.468,0.071790,-0.062861,-0.014279,49.250546,-123.234413,57.40,1,4,0.945,0.038,-0.007,-0.324,-0.09,0.00,-0.18,-0.28
hyu, -6.05,0.01,-6.10,1006.462,0.075864,-0.071608,-0.008356,49.250546,-123.234413,57.40,1,4,0.946,0.038,-0.006,-0.323,-0.09,0.01,-0.18,-0.29
hyu, -6.05,0.01,-6.10,1006.462,0.083366,-0.065167,-0.011848,49.250546,-123.234413,57.40,1,4,0.946,0.038,-0.004,-0.322,-0.09,0.03,-0.18,-0.29
hyu, -6.05,0.01,-6.01,1006.450,0.083257,-0.066797,-0.012484,49.250546,-123.234413,57.40,1,4,0.946,0.039,-0.003,-0.320,-0.09,0.04,-0.18,-0.29
hyu, -6.05,0.01,-6.01,1006.450,0.085416,-0.081376,-0.025679,49.250546,-123.234413,57.40,1,4,0.947,0.039,-0.002,-0.319,-0.08,0.05,-0.18,-0.29
hyu, -6.05,-0.00,-6.04,1006.453,0.095962,-0.069821,-0.052668,49.250546,-123.234413,57.40,1,4,0.948,0.039,-0.001,-0.317,-0.08,0.06,-0.18,-0.29
hyu, -6.05,-0.02,-6.04,1006.453,0.085009,-0.077634,-0.083339,49.250546,-123.234413,57.40,1,4,0.948,0.039,-0.001,-0.316,-0.08,0.08,-0.18,-0.29
hyu, -6.04,-0.03,-5.98,1006.447,0.111929,-0.085662,-0.088088,49.250546,-123.234413,57.40,1,4,0.948,0.038,0.000,-0.315,-0.07,0.09,-0.18,-0.29
hyu, -6.04,-0.06,-5.98,1006.447,0.129046,-0.104877,-0.147158,49.250546,-123.234413,57.40,1,4,0.949,0.039,0.001,-0.313,-0.07,0.11,-0.19,-0.30
hyu, -6.05,-0.07,-6.05,1006.455,0.158352,-0.119960,-0.088412,49.250546,-123.234413,57.40,1,4,0.949,0.040,0.002,-0.311,-0.07,0.14,-0.19,-0.31
hyu, -6.05,-0.08,-6.05,1006.455,0.133326,-0.090553,-0.040984,49.250546,-123.234413,57.40,1,4,0.950,0.042,0.003,-0.309,-0.06,0.16,-0.19,-0.31
hyu, -6.05,-0.09,-6.16,1006.468,0.114232,-0.069669,-0.083855,49.250546,-123.234413,57.40,1,4,0.951,0.043,0.005,-0.307,-0.06,0.17,-0.19,-0.31
hyu, -6.05,-0.11,-6.16,1006.468,0.141570,-0.096789,-0.077631,49.250546,-123.234413,57.40,1,4,0.951,0.044,0.007,-0.306,-0.05,0.20,-0.19,-0.32
hyu, -6.06,-0.12,-6.20,1006.473,0.163582,-0.141395,-0.079116,49.250546,-123.234413,57.40,1,4,0.951,0.046,0.009,-0.306,-0.05,0.22,-0.19,-0.33
hyu, -6.06,-0.13,-6.20,1006.473,0.167018,-0.185882,-0.038599,49.250546,-123.234413,57.40,1,4,0.951,0.047,0.012,-0.304,-0.04,0.25,-0.19,-0.35
hyu, -6.07,-0.13,-6.23,1006.477,0.156967,-0.173303,-0.002067,49.250546,-123.234413,57.40,1,4,0.952,0.049,0.015,-0.302,-0.04,0.27,-0.19,-0.37
hyu, -6.07,-0.12,-6.23,1006.477,0.115501,-0.135379,0.046585,49.250546,-123.234413,57.40,1,4,0.953,0.051,0.020,-0.299,-0.03,0.29,-0.19,-0.38
hyu, -6.08,-0.12,-6.30,1006.485,0.097013,-0.097289,0.028452,49.250546,-123.234413,57.40,1,4,0.953,0.052,0.023,-0.297,-0.02,0.30,-0.19,-0.39
hyu, -6.08,-0.11,-6.30,1006.485,0.109229,-0.100712,0.025310,49.250546,-123.234413,57.40,1,4,0.953,0.052,0.027,-0.296,-0.02,0.31,-0.19,-0.39
hyu, -6.09,-0.13,-6.35,1006.491,0.146559,-0.128465,-0.087456,49.250546,-123.234413,57.40,1,4,0.953,0.051,0.031,-0.296,-0.01,0.34,-0.20,-0.40
hyu, -6.09,-0.15,-6.35,1006.491,0.194035,-0.190944,-0.116525,49.250546,-123.234413,57.40,1,4,0.953,0.051,0.035,-0.296,-0.01,0.36,-0.20,-0.42
hyu, -6.10,-0.17,-6.38,1006.495,0.183248,-0.206440,-0.102334,49.250546,-123.234413,57.40,1,4,0.954,0.052,0.038,-0.294,0.00,0.39,-0.20,-0.45
hyu, -6.11,-0.18,-6.38,1006.495,0.129309,-0.168162,-0.052902,49.250546,-123.234413,57.40,1,4,0.954,0.054,0.040,-0.292,0.01,0.41,-0.20,-0.46
hyu, -6.11,-0.18,-6.28,1006.483,0.105015,-0.133846,0.003433,49.250546,-123.234413,57.40,1,4,0.954,0.055,0.041,-0.291,0.01,0.42,-0.21,-0.48
hyu, -6.12,-0.18,-6.28,1006.483,0.112767,-0.135416,-0.007607,49.250546,-123.234413,57.40,1,4,0.954,0.055,0.042,-0.290,0.02,0.44,-0.21,-0.49
hyu, -6.12,-0.19,-6.18,1006.470,0.139113,-0.162864,-0.043818,49.250546,-123.234413,57.40,1,4,0.954,0.054,0.042,-0.291,0.03,0.46,-0.21,-0.50
hyu, -6.13,-0.20,-6.18,1006.470,0.193613,-0.207980,-0.052716,49.250546,-123.234413,57.40,1,4,0.954,0.054,0.042,-0.291,0.04,0.49,-0.21,-0.53
hyu, -6.13,-0.20,-6.23,1006.477,0.215235,-0.229067,-0.045705,49.250546,-123.234413,57.40,1,4,0.954,0.055,0.041,-0.291,0.04,0.52,-0.22,-0.55
hyu, -6.14,-0.20,-6.23,1006.477,0.193801,-0.228824,0.014854,49.250546,-123.234413,57.40,1,4,0.955,0.057,0.040,-0.290,0.05,0.55,-0.22,-0.58
hyu, -6.14,-0.19,-6.22,1006.475,0.182368,-0.184814,0.053295,49.250546,-123.234413,57.40,1,4,0.955,0.059,0.039,-0.288,0.06,0.57,-0.23,-0.60
hyu, -6.14,-0.18,-6.22,1006.475,0.167533,-0.161252,0.071655,49.250546,-123.234413,57.40,1,4,0.955,0.061,0.039,-0.288,0.07,0.60,-0.23,-0.62
hyu, -6.15,-0.17,-6.16,1006.468,0.191325,-0.177709,0.038518,49.250546,-123.234413,57.40,1,4,0.955,0.062,0.037,-0.288,0.08,0.62,-0.23,-0.63
hyu, -6.15,-0.17,-6.16,1006.468,0.218466,-0.231053,0.046180,49.250546,-123.234413,57.40,1,4,0.955,0.063,0.036,-0.288,0.09,0.65,-0.24,-0.66
hyu, -6.15,-0.14,-6.16,1006.468,0.191648,-0.234853,0.120126,49.250546,-123.234413,57.40,1,4,0.955,0.066,0.034,-0.287,0.09,0.68,-0.24,-0.69
hyu, -6.16,-0.12,-6.16,1006.468,0.152955,-0.178762,0.163884,49.250546,-123.234413,57.40,1,4,0.956,0.068,0.033,-0.285,0.10,0.70,-0.25,-0.71
hyu, -6.16,-0.09,-6.15,1006.467,0.124220,-0.153622,0.171583,49.250546,-123.234413,57.40,1,4,0.956,0.069,0.032,-0.283,0.11,0.72,-0.26,-0.72
hyu, -6.16,-0.06,-6.15,1006.467,0.125991,-0.148655,0.173182,49.250546,-123.234413,57.40,1,4,0.956,0.070,0.032,-0.283,0.12,0.73,-0.26,-0.73
hyu, -6.16,-0.03,-6.16,1006.469,0.135102,-0.147557,0.158311,49.250546,-123.234413,57.40,1,4,0.956,0.070,0.032,-0.282,0.13,0.75,-0.27,-0.74
hyu, -6.16,-0.01,-6.16,1006.469,0.144552,-0.164810,0.112305,49.250546,-123.234413,57.40,1,4,0.956,0.069,0.032,-0.282,0.14,0.76,-0.27,-0.76
hyu, -6.16,0.01,-6.16,1006.469,0.151831,-0.164403,0.124606,49.250546,-123.234413,57.40,1,4,0.956,0.069,0.033,-0.282,0.15,0.78,-0.28,-0.77
hyu, -6.16,0.03,-6.16,1006.469,0.110953,-0.137023,0.106288,49.250713,-123.234222,57.40,1,4,0.956,0.069,0.033,-0.282,0.53,1.08,0.21,-0.40
hyu, -6.16,0.05,-6.18,1006.470,0.125888,-0.113045,0.118143,49.250713,-123.234222,57.40,1,4,0.956,0.070,0.033,-0.284,0.90,1.37,0.69,-0.04
hyu, -6.16,0.07,-6.18,1006.470,0.108142,-0.108174,0.106945,49.250713,-123.234222,57.40,1,4,0.955,0.070,0.032,-0.285,1.27,1.64,1.17,0.32
hyu, -6.16,0.11,-6.14,1006.465,0.128648,-0.115207,0.200445,49.250713,-123.234222,57.40,1,4,0.955,0.069,0.030,-0.288,1.63,1.92,1.64,0.66
hyu, -6.15,0.13,-6.14,1006.465,0.145939,-0.122589,0.131593,49.250713,-123.234222,57.40,1,4,0.954,0.066,0.027,-0.290,1.99,2.19,2.10,0.99
hyu, -6.15,0.14,-6.11,1006.462,0.163835,-0.123679,0.070209,49.250713,-123.234222,57.40,1,4,0.955,0.063,0.024,-0.290,2.34,2.45,2.56,1.32
hyu, -6.15,0.16,-6.11,1006.462,0.170284,-0.142939,0.087554,49.250713,-123.234222,57.40,1,4,0.955,0.061,0.023,-0.290,2.69,2.71,3.01,1.63
hyu, -6.14,0.18,-6.08,1006.459,0.114213,-0.114217,0.128294,49.250713,-123.234222,57.40,1,4,0.956,0.060,0.025,-0.287,3.03,2.95,3.45,1.93
hyu, -6.14,0.20,-6.08,1006.459,0.052979,-0.048360,0.125386,49.250713,-123.234222,57.40,1,4,0.957,0.057,0.028,-0.283,3.37,3.18,3.89,2.24
hyu, -6.14,0.20,-6.19,1006.472,0.067202,-0.001480,-0.037108,49.250713,-123.234222,57.40,1,4,0.958,0.052,0.032,-0.281,3.70,3.40,4.32,2.55
hyu, -6.13,0.18,-6.19,1006.472,0.137994,-0.035814,-0.117200,49.250713,-123.234222,57.40,1,4,0.958,0.048,0.038,-0.280,4.03,3.62,4.75,2.84
hyu, -6.13,0.13,-6.24,1006.478,0.152921,-0.067686,-0.288053,49.250713,-123.234222,57.40,1,4,0.958,0.047,0.044,-0.279,4.35,3.84,5.17,3.12
hyu, -6.13,0.09,-6.24,1006.478,0.137771,-0.098528,-0.203075,49.250713,-123.234222,57.40,1,4,0.959,0.050,0.048,-0.275,4.67,4.05,5.58,3.39
hyu, -6.13,0.08,-6.23,1006.477,0.081592,-0.004278,-0.044560,49.250713,-123.234222,57.40,1,4,0.960,0.055,0.052,-0.269,4.98,4.25,5.98,3.66
hyu, -6.13,0.11,-6.23,1006.477,0.028777,0.036121,0.139947,49.250713,-123.234222,57.40,1,4,0.961,0.058,0.054,-0.265,5.29,4.43,6.38,3.93
hyu, -6.13,0.14,-6.30,1006.485,0.007820,0.095931,0.173103,49.250713,-123.234222,57.40,1,4,0.962,0.056,0.054,-0.262,5.59,4.60,6.78,4.20
hyu, -6.13,0.14,-6.30,1006.485,0.081044,0.068472,0.033345,49.250713,-123.234222,57.40,1,4,0.962,0.051,0.054,-0.263,5.89,4.77,7.16,4.46
hyu, -6.13,0.11,-6.29,1006.483,0.166442,-0.049068,-0.211811,49.250713,-123.234222,57.40,1,4,0.962,0.044,0.053,-0.265,6.18,4.96,7.55,4.70
hyu, -6.13,0.04,-6.29,1006.483,0.217921,-0.134038,-0.360563,49.250713,-123.234222,57.40,1,4,0.962,0.041,0.052,-0.265,6.47,5.15,7.92,4.90
hyu, -6.14,-0.02,-6.26,1006.480,0.195089,-0.146229,-0.343330,49.250713,-123.234222,57.40,1,4,0.963,0.043,0.049,-0.261,6.76,5.33,8.29,5.10
hyu, -6.14,-0.05,-6.26,1006.480,0.128441,-0.072935,-0.175834,49.250713,-123.234222,57.40,1,4,0.964,0.049,0.046,-0.256,7.04,5.49,8.65,5.31
hyu, -6.14,-0.03,-6.16,1006.468,0.077565,-0.030734,0.116956,49.250713,-123.234222,57.40,1,4,0.965,0.054,0.041,-0.251,7.31,5.63,9.01,5.51
hyu, -6.14,0.02,-6.16,1006.468,0.032333,-0.014020,0.270168,49.250713,-123.234222,57.40,1,4,0.966,0.056,0.036,-0.249,7.58,5.76,9.36,5.71
hyu, -6.14,0.06,-6.29,1006.484,0.052980,0.001145,0.203012,49.250713,-123.234222,57.40,1,4,0.966,0.052,0.032,-0.250,7.85,5.89,9.71,5.91
hyu, -6.14,0.06,-6.29,1006.484,0.122217,-0.074221,0.013872,49.250713,-123.234222,57.40,1,4,0.966,0.047,0.029,-0.253,8.11,6.03,10.04,6.08
hyu, -6.14,0.03,-6.26,1006.480,0.164139,-0.134388,-0.134089,49.250713,-123.234222,57.40,1,4,0.965,0.045,0.027,-0.255,8.36,6.17,10.38,6.24
hyu, -6.14,0.04,-6.26,1006.480,0.189020,-0.188668,0.020380,49.250755,-123.234177,57.40,1,4,0.965,0.046,0.023,-0.256,8.70,6.38,10.83,6.48
hyu, -6.14,0.07,-6.20,1006.474,0.103544,-0.121943,0.188460,49.250755,-123.234177,57.40,1,4,0.966,0.049,0.018,-0.255,9.04,6.56,11.27,6.72
hyu, -6.14,0.11,-6.20,1006.474,0.084308,-0.065641,0.230217,49.250755,-123.234177,57.40,1,4,0.966,0.050,0.013,-0.255,9.36,6.73,11.71,6.96
hyu, -6.14,0.15,-6.22,1006.475,0.056661,-0.061644,0.217695,49.250755,-123.234177,57.40,1,4,0.965,0.051,0.008,-0.256,9.69,6.90,12.13,7.19
hyu, -6.14,0.18,-6.22,1006.475,-0.000110,-0.055537,0.202631,49.250755,-123.234177,57.40,1,4,0.965,0.051,0.003,-0.256,10.00,7.04,12.55,7.41
hyu, -6.14,0.20,-6.11,1006.462,-0.027594,-0.074286,0.113229,49.250755,-123.234177,57.40,1,4,0.965,0.052,-0.002,-0.258,10.31,7.18,12.97,7.63
hyu, -6.13,0.22,-6.11,1006.462,0.009482,-0.105768,0.078515,49.250755,-123.234177,57.40,1,4,0.964,0.054,-0.008,-0.259,10.62,7.31,13.37,7.82
hyu, -6.13,0.28,-6.14,1006.465,-0.001410,-0.187784,0.376693,49.250755,-123.234177,57.40,1,4,0.964,0.059,-0.012,-0.259,10.92,7.44,13.77,8.00
hyu, -6.12,0.35,-6.14,1006.465,-0.184982,-0.092003,0.425705,49.250755,-123.234177,57.40,1,4,0.964,0.060,-0.014,-0.257,11.21,7.53,14.16,8.18
hyu, -6.12,0.40,-6.14,1006.465,-0.147980,-0.015355,0.259196,49.250755,-123.234177,57.40,1,4,0.964,0.058,-0.012,-0.259,11.50,7.62,14.54,8.37
hyu, -6.11,0.40,-6.14,1006.465,-0.055063,-0.061599,0.024854,49.250755,-123.234177,57.40,1,4,0.963,0.054,-0.008,-0.263,11.78,7.72,14.92,8.55
hyu, -6.10,0.37,-6.22,1006.475,0.013649,-0.116169,-0.215115,49.250755,-123.234177,57.40,1,4,0.962,0.053,-0.003,-0.267,12.05,7.82,15.29,8.70
hyu, -6.10,0.32,-6.22,1006.475,0.069233,-0.182016,-0.277545,49.250755,-123.234177,57.40,1,4,0.961,0.057,0.002,-0.269,12.32,7.93,15.65,8.84
hyu, -6.10,0.30,-6.23,1006.477,0.054884,-0.176088,-0.110428,49.250755,-123.234177,57.40,1,4,0.961,0.065,0.004,-0.268,12.59,8.03,16.01,8.97
hyu, -6.09,0.32,-6.23,1006.477,-0.040550,-0.106189,0.116184,49.250755,-123.234177,57.40,1,4,0.961,0.073,0.006,-0.266,12.84,8.11,16.35,9.11
hyu, -6.09,0.33,-6.21,1006.474,-0.063868,-0.025199,0.041939,49.250755,-123.234177,57.40,1,4,0.961,0.076,0.005,-0.264,13.10,8.18,16.70,9.25
hyu, -6.09,0.30,-6.21,1006.474,0.011864,0.024159,-0.163955,49.250755,-123.234177,57.40,1,4,0.961,0.074,0.003,-0.266,13.35,8.26,17.03,9.39
hyu, -6.08,0.24,-6.27,1006.482,0.062082,-0.058986,-0.354924,49.250755,-123.234177,57.40,1,4,0.960,0.072,-0.001,-0.270,13.59,8.34,17.36,9.51
hyu, -6.08,0.17,-6.27,1006.482,0.126310,-0.137952,-0.359654,49.250755,-123.234177,57.40,1,4,0.959,0.072,-0.004,-0.274,13.83,8.43,17.68,9.62
hyu, -6.08,0.10,-6.29,1006.483,0.151120,-0.218612,-0.404090,49.250755,-123.234177,57.40,1,4,0.958,0.073,-0.008,-0.275,14.06,8.51,17.99,9.70
hyu, -6.08,0.04,-6.29,1006.483,0.105172,-0.197004,-0.335985,49.250755,-123.234177,57.40,1,4,0.959,0.076,-0.013,-0.274,14.29,8.59,18.30,9.78
hyu, -6.09,0.03,-6.37,1006.493,0.044406,-0.166144,-0.080154,49.250755,-123.234177,57.40,1,4,0.959,0.079,-0.019,-0.272,14.51,8.65,18.60,9.86
hyu, -6.09,0.02,-6.37,1006.493,-0.020348,-0.108904,-0.020477,49.250755,-123.234177,57.40,1,4,0.959,0.077,-0.023,-0.273,14.73,8.69,18.90,9.94
hyu, -6.10,0.00,-6.34,1006.490,0.052675,-0.128346,-0.113591,49.250755,-123.234177,57.40,1,4,0.958,0.072,-0.025,-0.277,14.94,8.74,19.18,10.01
hyu, -6.10,-0.03,-6.34,1006.490,0.153045,-0.211956,-0.164590,49.250755,-123.234177,57.40,1,4,0.957,0.068,-0.026,-0.281,15.15,8.81,19.46,10.06
hyu, -6.10,-0.06,-6.36,1006.492,0.156760,-0.254221,-0.205933,49.250755,-123.234177,57.40,1,4,0.957,0.065,-0.028,-0.283,15.36,8.87,19.74,10.10
hyu, -6.11,-0.08,-6.36,1006.492,0.111623,-0.193217,-0.085892,49.250755,-123.234177,57.50,1,5,0.957,0.063,-0.032,-0.282,15.55,8.92,20.01,10.15
hyu, -6.11,-0.08,-6.34,1006.490,0.028951,-0.116802,0.018770,49.250755,-123.234177,57.50,1,5,0.957,0.063,-0.037,-0.279,15.75,8.95,20.27,10.20
hyu, -6.12,-0.05,-6.34,1006.490,-0.038253,-0.065403,0.148006,49.250755,-123.234177,57.50,1,5,0.958,0.063,-0.041,-0.277,15.94,8.96,20.52,10.25
hyu, -6.12,-0.00,-6.33,1006.488,-0.098321,-0.019174,0.293458,49.250755,-123.234177,57.50,1,5,0.958,0.062,-0.046,-0.275,16.13,8.96,20.77,10.31
hyu, -6.12,0.06,-6.33,1006.488,-0.153335,0.005182,0.359349,49.250755,-123.234177,57.50,1,5,0.959,0.058,-0.048,-0.274,16.31,8.95,21.02,10.37
hyu, -6.12,0.09,-6.30,1006.488,-0.114676,0.027341,0.181386,49.250755,-123.234177,57.50,1,5,0.958,0.051,-0.049,-0.276,16.48,8.94,21.26,10.42
hyu, -6.13,0.09,-6.30,1006.485,-0.002723,-0.042268,0.003363,49.250755,-123.234177,57.50,1,5,0.958,0.045,-0.049,-0.279,16.65,8.95,21.49,10.46
hyu, -6.13,0.09,-6.40,1006.485,0.036993,-0.058301,-0.020149,49.250755,-123.234177,57.50,1,5,0.958,0.044,-0.049,-0.279,16.82,8.96,21.72,10.49
hyu, -6.13,0.10,-6.40,1006.497,-0.002307,-0.020300,0.100362,49.250755,-123.234177,57.50,1,5,0.958,0.046,-0.048,-0.278,16.98,8.96,21.94,10.53
hyu, -6.13,0.14,-6.40,1006.497,-0.057520,0.058945,0.229879,49.250755,-123.234177,57.50,1,5,0.959,0.049,-0.046,-0.276,17.14,8.94,22.16,10.57
hyu, -6.13,0.18,-6.40,1006.497,-0.101514,0.108997,0.209737,49.250755,-123.234177,57.50,1,5,0.959,0.049,-0.044,-0.276,17.29,8.92,22.37,10.62
hyu, -6.13,0.18,-6.40,1006.497,-0.058023,0.094260,0.058026,49.250755,-123.234177,57.50,1,5,0.958,0.046,-0.043,-0.279,17.44,8.90,22.58,10.66
hyu, -6.13,0.17,-6.44,1006.502,0.032355,0.000279,-0.101206,49.250755,-123.234177,57.50,1,5,0.957,0.042,-0.041,-0.283,17.59,8.89,22.78,10.68
hyu, -6.14,0.13,-6.44,1006.502,0.082282,-0.032873,-0.191310,49.250755,-123.234177,57.50,1,5,0.957,0.041,-0.038,-0.286,17.73,8.89,22.97,10.68
hyu, -6.14,0.09,-6.34,1006.490,0.072734,-0.065018,-0.235709,49.250755,-123.234177,57.50,1,5,0.956,0.043,-0.036,-0.287,17.87,8.88,23.17,10.68
hyu, -6.14,0.07,-6.34,1006.490,0.019741,-0.050676,-0.119087,49.250755,-123.234177,57.50,1,5,0.957,0.049,-0.033,-0.285,18.00,8.87,23.35,10.68
hyu, -6.14,0.08,-6.33,1006.489,-0.094831,0.025810,0.089112,49.250755,-123.234177,57.50,1,5,0.958,0.055,-0.030,-0.281,18.13,8.83,23.54,10.69
hyu, -6.14,0.11,-6.33,1006.489,-0.110643,0.105369,0.159114,49.250755,-123.234177,57.50,1,5,0.958,0.058,-0.025,-0.278,18.25,8.78,23.71,10.71
hyu, -6.14,0.12,-6.34,1006.490,-0.017887,0.068415,0.082453,49.250755,-123.234177,57.50,1,5,0.958,0.057,-0.018,-0.279,18.37,8.75,23.89,10.72
hyu, -6.14,0.11,-6.34,1006.490,0.076944,-0.018128,-0.094923,49.250755,-123.234177,57.50,1,5,0.958,0.054,-0.008,-0.282,18.49,8.73,24.05,10.71
hyu, -6.14,0.06,-6.36,1006.492,0.162237,-0.088693,-0.259262,49.250755,-123.234177,57.50,1,5,0.957,0.053,0.001,-0.284,18.61,8.72,24.22,10.68
hyu, -6.15,-0.01,-6.36,1006.492,0.185003,-0.132762,-0.378102,49.250755,-123.234177,57.50,1,5,0.957,0.053,0.008,-0.284,18.72,8.72,24.38,10.64
hyu, -6.15,-0.07,-6.38,1006.495,0.180259,-0.113477,-0.368734,49.250755,-123.234177,57.50,1,5,0.957,0.057,0.010,-0.283,18.83,8.71,24.53,10.61
hyu, -6.16,-0.11,-6.38,1006.495,0.145058,-0.125705,-0.201908,49.250755,-123.234177,57.50,1,5,0.958,0.061,0.009,-0.281,18.93,8.69,24.68,10.56
hyu, -6.16,-0.12,-6.38,1006.495,0.046837,-0.104457,-0.066699,49.250755,-123.234177,57.50,1,5,0.958,0.064,0.005,-0.279,19.03,8.66,24.83,10.52
hyu, -6.17,-0.12,-6.38,1006.495,0.004986,-0.056538,0.001959,49.250755,-123.234177,57.50,1,5,0.958,0.064,-0.001,-0.279,19.13,8.61,24.97,10.49
hyu, -6.17,-0.12,-6.38,1006.495,0.010153,-0.074819,-0.017294,49.250755,-123.234177,57.50,1,5,0.958,0.061,-0.009,-0.281,19.23,8.57,25.10,10.44
hyu, -6.18,-0.14,-6.38,1006.495,0.046818,-0.118458,-0.085254,49.250755,-123.234177,57.50,1,5,0.957,0.057,-0.017,-0.285,19.32,8.53,25.23,10.39
hyu, -6.18,-0.14,-6.33,1006.488,0.095953,-0.180906,-0.034375,49.250755,-123.234177,57.50,1,5,0.955,0.053,-0.026,-0.290,19.41,8.49,25.36,10.33
hyu, -6.19,-0.15,-6.33,1006.488,0.109906,-0.230479,-0.011890,49.250755,-123.234177,57.50,1,5,0.954,0.051,-0.032,-0.293,19.49,8.46,25.48,10.25
hyu, -6.19,-0.14,-6.32,1006.487,0.074185,-0.229203,0.041353,49.250755,-123.234177,57.50,1,5,0.954,0.051,-0.038,-0.294,19.57,8.42,25.60,10.17
hyu, -6.19,-0.11,-6.32,1006.487,0.014051,-0.178431,0.146963,49.250755,-123.234177,57.50,1,5,0.953,0.052,-0.041,-0.295,19.65,8.36,25.71,10.10
hyu, -6.20,-0.08,-6.39,1006.495,-0.026086,-0.129427,0.203031,49.250755,-123.234177,57.50,1,5,0.953,0.052,-0.044,-0.296,19.73,8.30,25.82,10.03
hyu, -6.20,-0.05,-6.39,1006.495,-0.031691,-0.098538,0.207456,49.250755,-123.234177,57.50,1,5,0.952,0.051,-0.046,-0.298,19.81,8.24,25.93,9.97
hyu, -6.21,-0.01,-6.41,1006.498,-0.043764,-0.100860,0.237571,49.250755,-123.234177,57.50,1,5,0.951,0.050,-0.047,-0.300,19.88,8.17,26.03,9.90
hyu, -6.21,0.03,-6.41,1006.498,-0.056336,-0.094688,0.229829,49.250755,-123.234177,57.50,1,5,0.951,0.047,-0.047,-0.303,19.94,8.10,26.13,9.83
hyu, -6.21,0.07,-6.45,1006.503,-0.091166,-0.139175,0.215699,49.250755,-123.234177,57.50,1,5,0.950,0.043,-0.047,-0.305,20.01,8.02,26.22,9.76
hyu, -6.21,0.11,-6.45,1006.503,-0.110689,-0.108688,0.221661,49.250755,-123.234177,57.50,1,5,0.950,0.040,-0.045,-0.307,20.07,7.93,26.31,9.68
hyu, -6.21,0.14,-6.47,1006.505,-0.109667,-0.067132,0.172523,49.250755,-123.234177,57.50,1,5,0.949,0.036,-0.041,-0.310,20.13,7.85,26.40,9.62
hyu, -6.22,0.15,-6.47,1006.505,-0.106496,-0.064178,0.092999,49.250740,-123.234169,57.50,1,5,0.948,0.033,-0.034,-0.314,20.20,7.77,26.43,9.51
hyu, -6.22,0.14,-6.48,1006.507,-0.082819,-0.045535,-0.035296,49.250740,-123.234169,57.50,1,5,0.947,0.030,-0.026,-0.319,20.26,7.70,26.47,9.41
hyu, -6.22,0.12,-6.48,1006.507,-0.037257,-0.059258,-0.142260,49.250740,-123.234169,57.50,1,5,0.945,0.030,-0.019,-0.325,20.33,7.64,26.50,9.31
hyu, -6.22,0.09,-6.48,1006.507,0.017985,-0.073718,-0.146685,49.250740,-123.234169,57.50,1,5,0.943,0.034,-0.014,-0.331,20.39,7.58,26.53,9.20
hyu, -6.22,0.09,-6.48,1006.507,0.046331,-0.104539,-0.023158,49.250740,-123.234169,57.50,1,5,0.941,0.039,-0.011,-0.335,20.45,7.53,26.56,9.09
hyu, -6.22,0.10,-6.43,1006.500,0.056341,-0.071571,0.093093,49.250740,-123.234169,57.50,1,5,0.940,0.045,-0.008,-0.338,20.50,7.48,26.58,8.98
hyu, -6.22,0.11,-6.43,1006.500,0.022511,-0.009740,0.068629,49.250740,-123.234169,57.50,1,5,0.939,0.047,-0.006,-0.339,20.56,7.42,26.61,8.88
hyu, -6.23,0.11,-6.40,1006.497,0.029031,0.013353,-0.012017,49.250740,-123.234169,57.50,1,5,0.939,0.047,-0.006,-0.342,20.61,7.36,26.62,8.79
hyu, -6.23,0.09,-6.40,1006.497,0.046069,-0.022915,-0.100456,49.250740,-123.234169,57.50,1,5,0.938,0.045,-0.008,-0.345,20.66,7.30,26.64,8.68
hyu, -6.23,0.06,-6.40,1006.497,0.077137,-0.069245,-0.162889,49.250740,-123.234169,57.50,1,5,0.937,0.043,-0.010,-0.347,20.71,7.25,26.66,8.58
hyu, -6.23,0.03,-6.40,1006.497,0.115044,-0.121994,-0.214060,49.250740,-123.234169,57.50,1,5,0.936,0.041,-0.011,-0.350,20.75,7.20,26.67,8.46
hyu, -6.23,-0.02,-6.39,1006.495,0.130302,-0.143780,-0.286773,49.250740,-123.234169,57.50,1,5,0.935,0.041,-0.011,-0.351,20.79,7.15,26.68,8.33
hyu, -6.23,-0.07,-6.39,1006.495,0.105213,-0.150930,-0.293331,49.250740,-123.234169,57.50,1,5,0.935,0.042,-0.010,-0.351,20.83,7.10,26.69,8.21
hyu, -6.23,-0.10,-6.19,1006.472,0.071452,-0.151911,-0.155573,49.250740,-123.234169,57.50,1,5,0.935,0.044,-0.011,-0.352,20.87,7.04,26.70,8.09
hyu, -6.24,-0.11,-6.19,1006.472,0.035116,-0.067444,-0.074860,49.250740,-123.234169,57.50,1,5,0.935,0.044,-0.013,-0.352,20.91,6.98,26.70,7.98
hyu, -6.24,-0.13,-6.15,1006.467,0.053883,-0.073570,-0.114320,49.250740,-123.234169,57.50,1,5,0.934,0.042,-0.015,-0.355,20.94,6.92,26.70,7.86
hyu, -6.24,-0.15,-6.15,1006.467,0.100209,-0.127143,-0.135614,49.250740,-123.234169,57.50,1,5,0.933,0.041,-0.019,-0.358,20.98,6.86,26.70,7.74
hyu, -6.24,-0.17,-6.22,1006.475,0.095267,-0.128623,-0.107493,49.250740,-123.234169,57.50,1,5,0.932,0.041,-0.024,-0.360,21.01,6.80,26.70,7.62
hyu, -6.24,-0.18,-6.22,1006.475,0.078583,-0.094261,-0.031169,49.250740,-123.234169,57.50,1,5,0.931,0.042,-0.032,-0.360,21.04,6.74,26.69,7.51
hyu, -6.25,-0.16,-6.26,1006.480,0.057120,-0.061173,0.098061,49.250740,-123.234169,57.50,1,5,0.931,0.043,-0.040,-0.360,21.06,6.68,26.69,7.40
hyu, -6.25,-0.13,-6.26,1006.480,-0.003608,-0.008843,0.192022,49.250740,-123.234169,57.50,1,5,0.931,0.044,-0.047,-0.359,21.09,6.61,26.68,7.30
hyu, -6.25,-0.08,-6.22,1006.475,-0.037773,0.038666,0.275455,49.250740,-123.234169,57.50,1,5,0.931,0.044,-0.053,-0.358,21.11,6.52,26.67,7.21
hyu, -6.25,-0.04,-6.22,1006.475,-0.046916,0.045588,0.229664,49.250740,-123.234169,57.50,1,5,0.931,0.041,-0.056,-0.359,21.13,6.44,26.66,7.12
hyu, -6.25,-0.02,-6.23,1006.477,-0.017160,0.012770,0.120878,49.250740,-123.234169,57.50,1,5,0.930,0.039,-0.056,-0.361,21.15,6.36,26.65,7.03
hyu, -6.25,-0.01,-6.23,1006.477,0.021008,-0.062726,0.059826,49.250740,-123.234169,57.50,1,5,0.930,0.038,-0.055,-0.362,21.17,6.29,26.64,6.92
hyu, -6.25,0.01,-6.33,1006.488,0.019359,-0.070388,0.084170,49.250740,-123.234169,57.50,1,5,0.930,0.038,-0.053,-0.361,21.19,6.21,26.62,6.81
hyu, -6.25,0.04,-6.33,1006.488,-0.060359,-0.042298,0.183188,49.250740,-123.234169,57.50,1,5,0.931,0.041,-0.049,-0.358,21.20,6.13,26.61,6.71
hyu, -6.25,0.10,-6.34,1006.490,-0.126904,0.032140,0.347476,49.250740,-123.234169,57.50,1,5,0.933,0.043,-0.043,-0.354,21.21,6.03,26.59,6.62
hyu, -6.25,0.14,-6.34,1006.490,-0.150424,0.103881,0.225960,49.250740,-123.234169,57.50,1,5,0.935,0.041,-0.035,-0.351,21.22,5.93,26.57,6.54
hyu, -6.25,0.15,-6.33,1006.488,-0.056868,0.081969,0.071056,49.250740,-123.234169,57.50,1,5,0.935,0.038,-0.026,-0.350,21.23,5.84,26.55,6.46
hyu, -6.25,0.13,-6.33,1006.488,0.018900,0.016447,-0.137220,49.250740,-123.234169,57.50,1,5,0.936,0.035,-0.018,-0.351,21.24,5.76,26.53,6.36
hyu, -6.25,0.09,-6.34,1006.490,0.040241,-0.041067,-0.213738,49.250740,-123.234169,57.50,1,5,0.936,0.037,-0.011,-0.350,21.24,5.69,26.51,6.26
hyu, -6.25,0.06,-6.34,1006.490,0.003237,-0.013651,-0.147039,49.250740,-123.234169,57.50,1,5,0.937,0.042,-0.006,-0.347,21.25,5.62,26.49,6.17
hyu, -6.25,0.06,-6.32,1006.487,-0.017763,0.070056,-0.018292,49.250740,-123.234169,57.50,1,5,0.938,0.048,-0.004,-0.342,21.25,5.53,26.46,6.09
hyu, -6.25,0.07,-6.32,1006.487,-0.007260,0.099558,0.066022,49.250740,-123.234169,57.50,1,5,0.939,0.052,-0.002,-0.339,21.25,5.46,26.44,6.01
hyu, -6.25,0.09,-6.29,1006.484,0.008123,0.108564,0.083546,49.250740,-123.234169,57.50,1,5,0.940,0.052,0.001,-0.338,21.25,5.38,26.42,5.94
hyu, -6.25,0.08,-6.29,1006.484,0.097175,0.016167,-0.067908,49.250740,-123.234169,57.50,1,5,0.939,0.049,0.005,-0.341,21.25,5.32,26.39,5.85
hyu, -6.25,0.03,-6.39,1006.495,0.179780,-0.107723,-0.242697,49.250740,-123.234169,57.50,1,5,0.938,0.046,0.008,-0.343,21.25,5.27,26.36,5.74
hyu, -6.25,-0.03,-6.39,1006.495,0.175193,-0.197112,-0.370173,49.250740,-123.234169,57.50,1,5,0.938,0.045,0.009,-0.342,21.24,5.22,26.34,5.61
hyu, -6.25,-0.09,-6.36,1006.492,0.148413,-0.153062,-0.333559,49.250740,-123.234169,57.50,1,5,0.940,0.046,0.009,-0.338,21.24,5.17,26.31,5.50
hyu, -6.26,-0.13,-6.36,1006.492,0.065084,-0.079558,-0.238234,49.250740,-123.234169,57.50,1,5,0.941,0.049,0.006,-0.334,21.23,5.10,26.28,5.39
hyu, -6.26,-0.16,-6.41,1006.498,0.028300,-0.040812,-0.163965,49.250740,-123.234169,57.50,1,5,0.942,0.053,0.003,-0.331,21.23,5.03,26.25,5.30
hyu, -6.27,-0.16,-6.41,1006.498,0.033640,-0.028445,-0.036811,49.250740,-123.234169,57.50,1,5,0.942,0.056,-0.001,-0.331,21.22,4.96,26.21,5.20
hyu, -6.27,-0.16,-6.36,1006.492,0.033566,-0.082313,-0.001266,49.250740,-123.234169,57.50,1,5,0.941,0.056,-0.005,-0.333,21.21,4.89,26.18,5.10
hyu, -6.27,-0.16,-6.36,1006.492,0.038314,-0.122144,0.028614,49.250740,-123.234169,57.50,1,5,0.940,0.057,-0.011,-0.335,21.20,4.82,26.15,5.00
hyu, -6.28,-0.15,-6.39,1006.495,0.037628,-0.147038,0.049770,49.250740,-123.234169,57.50,1,5,0.940,0.056,-0.017,-0.337,21.19,4.75,26.11,4.88
hyu, -6.28,-0.14,-6.39,1006.495,0.027968,-0.133961,0.048749,49.250740,-123.234169,57.50,1,5,0.939,0.055,-0.024,-0.339,21.18,4.68,26.08,4.78
hyu, -6.29,-0.13,-6.36,1006.492,0.019900,-0.122038,0.078619,49.250740,-123.234169,57.50,1,5,0.938,0.055,-0.030,-0.341,21.17,4.60,26.04,4.67
hyu, -6.29,-0.11,-6.36,1006.492,0.007490,-0.149217,0.136338,49.250740,-123.234169,57.50,1,5,0.937,0.055,-0.035,-0.343,21.16,4.53,26.00,4.56
hyu, -6.29,-0.09,-6.37,1006.494,-0.004576,-0.140413,0.104192,49.250740,-123.234169,57.50,1,5,0.936,0.055,-0.040,-0.344,21.14,4.45,25.97,4.45
hyu, -6.29,-0.07,-6.37,1006.494,-0.003500,-0.142610,0.115487,49.250740,-123.234169,57.50,1,5,0.936,0.056,-0.044,-0.345,21.13,4.38,25.93,4.35
hyu, -6.29,-0.03,-6.30,1006.485,-0.037917,-0.125995,0.237604,49.250740,-123.234169,57.50,1,5,0.935,0.058,-0.048,-0.346,21.11,4.29,25.89,4.24
hyu, -6.30,0.02,-6.30,1006.485,-0.088930,-0.078847,0.257350,49.250740,-123.234169,57.50,1,5,0.935,0.058,-0.050,-0.347,21.10,4.20,25.85,4.15
hyu, -6.30,0.07,-6.37,1006.494,-0.110339,-0.089532,0.325122,49.250740,-123.234169,57.50,1,5,0.934,0.058,-0.051,-0.348,21.08,4.11,25.81,4.06
hyu, -6.29,0.14,-6.37,1006.494,-0.144571,-0.081448,0.377628,49.250740,-123.234169,57.50,1,5,0.934,0.057,-0.049,-0.350,21.06,4.01,25.76,3.96
hyu, -6.29,0.18,-6.36,1006.492,-0.128772,-0.048602,0.268552,49.250740,-123.234169,57.50,1,5,0.933,0.054,-0.043,-0.352,21.04,3.92,25.72,3.88
hyu, -6.29,0.19,-6.36,1006.492,-0.055500,-0.092466,0.054124,49.250740,-123.234169,57.50,1,5,0.932,0.050,-0.036,-0.356,21.02,3.83,25.68,3.78
hyu, -6.29,0.17,-6.27,1006.482,0.010902,-0.153221,-0.128410,49.250740,-123.234169,57.50,1,5,0.931,0.048,-0.029,-0.360,21.00,3.76,25.64,3.68
hyu, -6.28,0.13,-6.27,1006.482,0.043811,-0.221864,-0.227609,49.250740,-123.234169,57.50,1,5,0.930,0.051,-0.024,-0.363,20.97,3.70,25.59,3.57
hyu, -6.28,0.11,-6.25,1006.479,0.023180,-0.205095,-0.130838,49.250740,-123.234169,57.50,1,5,0.930,0.058,-0.020,-0.363,20.95,3.63,25.55,3.46
hyu, -6.28,0.12,-6.25,1006.479,-0.045298,-0.109638,0.030932,49.250740,-123.234169,57.50,1,5,0.930,0.065,-0.017,-0.361,20.93,3.55,25.50,3.37
hyu, -6.28,0.13,-6.36,1006.492,-0.090869,-0.015491,0.047366,49.250740,-123.234169,57.50,1,5,0.930,0.069,-0.015,-0.362,20.90,3.47,25.46,3.29
hyu, -6.28,0.12,-6.36,1006.492,-0.050729,0.015525,-0.038285,49.250740,-123.234169,57.50,1,5,0.928,0.069,-0.014,-0.365,20.88,3.39,25.41,3.22
hyu, -6.28,0.08,-6.41,1006.498,0.043091,-0.074880,-0.204309,49.250740,-123.234169,57.50,1,5,0.926,0.066,-0.014,-0.371,20.85,3.32,25.37,3.14
hyu, -6.28,0.04,-6.41,1006.498,0.102036,-0.206203,-0.277043,49.250740,-123.234169,57.50,1,5,0.924,0.064,-0.013,-0.377,20.82,3.27,25.32,3.03
hyu, -6.28,-0.02,-6.37,1006.494,0.118485,-0.276274,-0.298963,49.250740,-123.234169,57.50,1,5,0.923,0.063,-0.013,-0.378,20.80,3.23,25.28,2.92
hyu, -6.28,-0.07,-6.37,1006.494,0.070862,-0.215261,-0.319538,49.250740,-123.234169,57.50,1,5,0.924,0.065,-0.012,-0.377,20.77,3.17,25.23,2.81
hyu, -6.28,-0.12,-6.37,1006.493,0.032406,-0.148751,-0.257524,49.250740,-123.234169,57.50,1,5,0.925,0.067,-0.013,-0.374,20.75,3.11,25.18,2.72
hyu, -6.29,-0.15,-6.37,1006.493,-0.005285,-0.094024,-0.176184,49.250740,-123.234169,57.50,1,5,0.925,0.068,-0.014,-0.374,20.72,3.04,25.13,2.64
hyu, -6.29,-0.16,-6.32,1006.487,0.010946,-0.087639,-0.110567,49.250740,-123.234169,57.50,1,5,0.924,0.068,-0.016,-0.376,20.69,2.98,25.09,2.56
hyu, -6.29,-0.19,-6.32,1006.487,0.066831,-0.167358,-0.141541,49.250740,-123.234169,57.50,1,5,0.923,0.067,-0.018,-0.379,20.66,2.92,25.04,2.47
hyu, -6.30,-0.21,-6.33,1006.489,0.111263,-0.209349,-0.133453,49.250740,-123.234169,57.50,1,5,0.922,0.066,-0.022,-0.381,20.63,2.88,24.99,2.37
hyu, -6.30,-0.22,-6.33,1006.489,0.096693,-0.198878,-0.049754,49.250740,-123.234169,57.50,1,5,0.921,0.065,-0.029,-0.382,20.61,2.83,24.94,2.27
hyu, -6.31,-0.21,-6.25,1006.479,0.057442,-0.143821,0.031855,49.250740,-123.234169,57.50,1,5,0.921,0.065,-0.037,-0.381,20.58,2.77,24.89,2.19
hyu, -6.31,-0.19,-6.25,1006.479,-0.010782,-0.095642,0.108806,49.250740,-123.234169,57.50,1,5,0.921,0.065,-0.044,-0.381,20.55,2.71,24.84,2.11
hyu, -6.31,-0.16,-6.18,1006.471,-0.044398,-0.071215,0.207166,49.250740,-123.234169,57.50,1,5,0.921,0.065,-0.051,-0.380,20.52,2.64,24.79,2.04
hyu, -6.31,-0.11,-6.18,1006.471,-0.069376,-0.053931,0.246157,49.250740,-123.234169,57.50,1,5,0.921,0.064,-0.055,-0.380,20.49,2.56,24.75,1.98
hyu, -6.31,-0.08,-6.18,1006.471,-0.058639,-0.042800,0.179877,49.250740,-123.234169,57.50,1,5,0.921,0.062,-0.057,-0.380,20.46,2.49,24.70,1.91
hyu, -6.31,-0.04,-6.18,1006.471,-0.016394,-0.077357,0.212849,49.250759,-123.234116,57.50,1,5,0.921,0.061,-0.058,-0.379,20.53,2.51,24.70,1.89
hyu, -6.31,-0.01,-6.29,1006.484,-0.024927,-0.065375,0.217389,49.250759,-123.234116,57.50,1,5,0.922,0.060,-0.056,-0.378,20.61,2.52,24.71,1.86
hyu, -6.31,0.04,-6.29,1006.484,-0.016887,-0.035898,0.239949,49.250759,-123.234116,57.50,1,5,0.923,0.061,-0.052,-0.376,20.68,2.53,24.72,1.84
hyu, -6.31,0.08,-6.30,1006.485,-0.045921,-0.002713,0.243109,49.250759,-123.234116,57.50,1,5,0.924,0.061,-0.045,-0.374,20.74,2.54,24.72,1.83
hyu, -6.31,0.13,-6.30,1006.485,-0.092212,0.024753,0.294011,49.250759,-123.234116,57.50,1,5,0.925,0.061,-0.038,-0.372,20.81,2.54,24.73,1.82
hyu, -6.30,0.16,-6.29,1006.484,-0.080117,0.041279,0.168640,49.250759,-123.234116,57.50,1,5,0.926,0.057,-0.030,-0.372,20.87,2.53,24.74,1.82
hyu, -6.30,0.14,-6.29,1006.484,0.010487,0.012795,-0.087349,49.250759,-123.234116,57.50,1,5,0.926,0.053,-0.021,-0.372,20.94,2.54,24.74,1.81
hyu, -6.30,0.10,-6.22,1006.476,0.053182,-0.055008,-0.263020,49.250759,-123.234116,57.50,1,5,0.927,0.053,-0.015,-0.372,21.00,2.56,24.75,1.78
hyu, -6.29,0.06,-6.22,1006.476,0.039819,-0.031237,-0.267051,49.250759,-123.234116,57.50,1,5,0.927,0.057,-0.010,-0.371,21.06,2.58,24.75,1.77
hyu, -6.29,0.04,-6.25,1006.479,-0.020187,0.033606,-0.116364,49.250759,-123.234116,57.50,1,5,0.927,0.063,-0.009,-0.368,21.12,2.58,24.75,1.76
hyu, -6.29,0.06,-6.25,1006.479,-0.047182,0.090392,0.111421,49.250759,-123.234116,57.50,1,5,0.928,0.069,-0.008,-0.366,21.17,2.58,24.76,1.76
hyu, -6.29,0.09,-6.29,1006.484,-0.056774,0.088850,0.222258,49.250759,-123.234116,57.50,1,5,0.928,0.071,-0.008,-0.366,21.23,2.57,24.76,1.76
hyu, -6.29,0.12,-6.29,1006.484,0.012656,0.064880,0.168371,49.250759,-123.234116,57.50,1,5,0.928,0.068,-0.005,-0.367,21.28,2.57,24.77,1.76
hyu, -6.29,0.11,-6.28,1006.482,0.126773,-0.018481,-0.093685,49.250759,-123.234116,57.50,1,5,0.927,0.063,0.001,-0.370,21.33,2.60,24.77,1.74
hyu, -6.28,0.05,-6.28,1006.482,0.267611,-0.331555,-0.316058,49.250759,-123.234116,57.50,1,5,0.927,0.058,0.007,-0.370,21.39,2.64,24.77,1.67
hyu, -6.28,-0.04,-6.21,1006.474,0.193352,-0.155933,-0.528677,49.250759,-123.234116,57.50,1,5,0.928,0.058,0.012,-0.367,21.44,2.68,24.77,1.63
hyu, -6.28,-0.11,-6.21,1006.474,0.077103,-0.139733,-0.448187,49.250759,-123.234116,57.50,1,5,0.930,0.061,0.013,-0.362,21.49,2.69,24.77,1.60
hyu, -6.28,-0.17,-6.14,1006.466,0.093980,-0.093107,-0.360708,49.250759,-123.234116,57.50,1,5,0.932,0.065,0.013,-0.356,21.54,2.70,24.77,1.57
hyu, -6.28,-0.21,-6.14,1006.466,0.073799,-0.028989,-0.206166,49.250759,-123.234116,57.50,1,5,0.934,0.069,0.012,-0.351,21.58,2.71,24.77,1.55
hyu, -6.29,-0.21,-6.17,1006.469,0.046639,-0.037397,-0.021094,49.250759,-123.234116,57.50,1,5,0.934,0.071,0.010,-0.349,21.63,2.71,24.77,1.53
hyu, -6.29,-0.22,-6.17,1006.469,0.029972,-0.010802,-0.042463,49.250759,-123.234116,57.50,1,5,0.934,0.070,0.007,-0.349,21.68,2.71,24.77,1.51
hyu, -6.29,-0.22,-6.15,1006.467,0.085441,-0.078282,-0.057356,49.250759,-123.234116,57.50,1,5,0.933,0.068,0.004,-0.352,21.72,2.72,24.77,1.48
hyu, -6.29,-0.23,-6.15,1006.467,0.134810,-0.183852,-0.060366,49.250759,-123.234116,57.50,1,5,0.933,0.066,-0.000,-0.354,21.76,2.74,24.77,1.44
hyu, -6.30,-0.23,-6.21,1006.474,0.118806,-0.244818,-0.010191,49.250759,-123.234116,57.50,1,5,0.933,0.066,-0.006,-0.354,21.81,2.75,24.77,1.38
hyu, -6.30,-0.22,-6.21,1006.474,0.068843,-0.200397,0.080346,49.250759,-123.234116,57.50,1,5,0.934,0.066,-0.011,-0.352,21.85,2.75,24.76,1.34
hyu, -6.30,-0.20,-6.26,1006.480,0.027366,-0.153498,0.116658,49.250759,-123.234116,57.50,1,5,0.934,0.067,-0.016,-0.350,21.89,2.75,24.76,1.30
hyu, -6.30,-0.18,-6.26,1006.480,0.030658,-0.169124,0.117776,49.250759,-123.234116,57.50,1,5,0.934,0.067,-0.018,-0.350,21.93,2.74,24.76,1.25
hyu, -6.31,-0.16,-6.25,1006.479,0.027895,-0.188217,0.095921,49.250759,-123.234116,57.50,1,5,0.934,0.068,-0.020,-0.350,21.97,2.73,24.75,1.21
hyu, -6.31,-0.13,-6.25,1006.479,0.002876,-0.209899,0.190244,49.250759,-123.234116,57.50,1,5,0.933,0.070,-0.022,-0.351,22.00,2.72,24.74,1.16
hyu, -6.31,-0.07,-6.30,1006.485,-0.071500,-0.183837,0.350224,49.250759,-123.234116,57.50,1,5,0.933,0.070,-0.023,-0.352,22.04,2.69,24.74,1.12
hyu, -6.31,0.00,-6.30,1006.485,-0.101887,-0.127046,0.395254,49.250759,-123.234116,57.50,1,5,0.933,0.067,-0.021,-0.353,22.07,2.66,24.73,1.08
hyu, -6.31,0.05,-6.40,1006.497,-0.064565,-0.158940,0.293020,49.250759,-123.234116,57.50,1,5,0.932,0.063,-0.017,-0.356,22.11,2.64,24.72,1.04
hyu, -6.31,0.08,-6.40,1006.497,-0.052579,-0.209274,0.167993,49.250759,-123.234116,57.50,1,5,0.931,0.059,-0.011,-0.359,22.14,2.61,24.72,0.99
hyu, -6.31,0.09,-6.44,1006.502,-0.075091,-0.196830,0.080132,49.250759,-123.234116,57.50,1,5,0.931,0.057,-0.003,-0.361,22.17,2.58,24.71,0.95
hyu, -6.31,0.09,-6.44,1006.502,-0.121016,-0.195250,0.000984,49.250759,-123.234116,57.50,1,5,0.930,0.057,0.003,-0.363,22.20,2.55,24.70,0.90
hyu, -6.31,0.09,-6.49,1006.508,-0.119298,-0.142343,-0.048217,49.250759,-123.234116,57.50,1,5,0.929,0.060,0.007,-0.364,22.22,2.51,24.69,0.86
hyu, -6.31,0.09,-6.49,1006.508,-0.106398,-0.124616,0.014092,49.250759,-123.234116,57.50,1,5,0.928,0.065,0.008,-0.366,22.25,2.47,24.68,0.83
hyu, -6.31,0.12,-6.47,1006.508,-0.108759,-0.135819,0.211617,49.250759,-123.234116,57.50,1,5,0.926,0.072,0.009,-0.369,22.28,2.44,24.67,0.80
hyu, -6.31,0.17,-6.47,1006.505,-0.110931,-0.069701,0.258859,49.250759,-123.234116,57.50,1,5,0.925,0.077,0.010,-0.373,22.30,2.40,24.66,0.77
hyu, -6.31,0.19,-6.49,1006.505,-0.066980,-0.056851,0.144274,49.250759,-123.234116,57.50,1,5,0.922,0.077,0.011,-0.379,22.32,2.37,24.65,0.75
hyu, -6.31,0.18,-6.49,1006.508,0.026541,-0.095663,-0.057976,49.250759,-123.234116,57.50,1,5,0.920,0.074,0.010,-0.385,22.34,2.35,24.64,0.73
hyu, -6.31,0.15,-6.48,1006.506,0.096954,-0.174760,-0.171095,49.250759,-123.234116,57.50,1,5,0.918,0.070,0.009,-0.390,22.36,2.35,24.62,0.69
hyu, -6.31,0.12,-6.48,1006.506,0.102999,-0.222306,-0.172694,49.250759,-123.234116,57.50,1,5,0.917,0.069,0.010,-0.393,22.38,2.35,24.61,0.64
hyu, -6.31,0.08,-6.48,1006.506,0.097518,-0.210971,-0.207100,49.250759,-123.234116,57.50,1,5,0.917,0.068,0.013,-0.394,22.40,2.34,24.60,0.59
hyu, -6.31,0.04,-6.42,1006.500,0.073750,-0.157602,-0.258566,49.250759,-123.234116,57.50,1,5,0.916,0.068,0.015,-0.394,22.42,2.33,24.59,0.55
hyu, -6.31,-0.00,-6.42,1006.500,0.048153,-0.126699,-0.241745,49.250759,-123.234116,57.50,1,5,0.916,0.067,0.016,-0.395,22.44,2.32,24.58,0.52
hyu, -6.32,-0.05,-6.37,1006.493,0.070145,-0.081907,-0.272267,49.250759,-123.234116,57.50,1,5,0.915,0.065,0.014,-0.398,22.46,2.31,24.56,0.50
hyu, -6.32,-0.10,-6.37,1006.493,0.121152,-0.156256,-0.313357,49.250759,-123.234116,57.50,1,5,0.913,0.062,0.011,-0.403,22.47,2.31,24.55,0.46
hyu, -6.32,-0.15,-6.28,1006.482,0.123819,-0.236722,-0.285868,49.250759,-123.234116,57.50,1,5,0.911,0.061,0.005,-0.407,22.49,2.31,24.54,0.41
hyu, -6.32,-0.19,-6.28,1006.482,0.085739,-0.206508,-0.233471,49.250759,-123.234116,57.50,1,5,0.910,0.060,-0.003,-0.410,22.51,2.30,24.52,0.37
hyu, -6.32,-0.21,-6.23,1006.477,0.066228,-0.155685,-0.128385,49.250759,-123.234116,57.50,1,5,0.909,0.060,-0.014,-0.411,22.52,2.29,24.51,0.34
hyu, -6.33,-0.22,-6.23,1006.477,0.034685,-0.069477,-0.040276,49.250759,-123.234116,57.50,1,5,0.908,0.060,-0.026,-0.413,22.54,2.27,24.49,0.32
hyu, -6.33,-0.20,-6.25,1006.479,0.061161,-0.050570,0.072281,49.250759,-123.234116,57.50,1,5,0.907,0.059,-0.037,-0.416,22.55,2.26,24.48,0.30
hyu, -6.33,-0.18,-6.25,1006.479,0.057396,-0.064868,0.159216,49.250759,-123.234116,57.50,1,5,0.906,0.058,-0.045,-0.418,22.56,2.24,24.47,0.28
hyu, -6.33,-0.13,-6.26,1006.480,0.040085,-0.065787,0.239572,49.250759,-123.234116,57.50,1,5,0.905,0.057,-0.050,-0.419,22.58,2.22,24.45,0.26
hyu, -6.33,-0.11,-6.26,1006.480,0.004159,-0.011999,0.138885,49.250759,-123.234116,57.50,1,5,0.905,0.055,-0.053,-0.418,22.59,2.20,24.44,0.25
hyu, -6.33,-0.09,-6.29,1006.484,0.013418,0.029592,0.098639,49.250759,-123.234116,57.50,1,5,0.906,0.054,-0.055,-0.417,22.60,2.18,24.43,0.25
hyu, -6.34,-0.07,-6.29,1006.484,-0.017493,0.045090,0.109906,49.250759,-123.234116,57.50,1,5,0.906,0.054,-0.056,-0.416,22.61,2.15,24.41,0.26
hyu, -6.34,-0.05,-6.29,1006.484,-0.044601,0.048366,0.135509,49.250759,-123.234116,57.50,1,5,0.907,0.055,-0.055,-0.414,22.62,2.12,24.40,0.26
hyu, -6.34,-0.01,-6.29,1006.484,-0.078961,0.035158,0.221759,49.250759,-123.234116,57.50,1,5,0.908,0.057,-0.051,-0.413,22.63,2.08,24.39,0.26
hyu, -6.33,0.06,-6.34,1006.490,-0.141443,0.056678,0.388567,49.250759,-123.234116,57.50,1,5,0.909,0.058,-0.046,-0.411,22.64,2.03,24.37,0.26
hyu, -6.33,0.10,-6.34,1006.490,-0.129178,0.110234,0.257373,49.250759,-123.234116,57.50,1,5,0.910,0.054,-0.039,-0.410,22.64,1.98,24.36,0.28
hyu, -6.33,0.11,-6.34,1006.490,-0.010350,0.084538,0.052510,49.250759,-123.234116,57.50,1,5,0.910,0.050,-0.030,-0.410,22.65,1.95,24.35,0.29
hyu, -6.33,0.09,-6.34,1006.490,0.075398,0.016957,-0.154525,49.250759,-123.234116,57.50,1,5,0.909,0.048,-0.021,-0.412,22.66,1.94,24.34,0.29
hyu, -6.33,0.03,-6.32,1006.487,0.109726,-0.071502,-0.329647,49.250759,-123.234116,57.50,1,5,0.909,0.050,-0.013,-0.413,22.66,1.93,24.33,0.27
hyu, -6.33,-0.01,-6.32,1006.487,0.076109,-0.075545,-0.214583,49.250755,-123.234100,57.50,1,5,0.910,0.057,-0.009,-0.410,22.70,1.94,24.31,0.24
hyu, -6.33,0.01,-6.32,1006.487,0.018372,0.028978,0.090735,49.250755,-123.234100,57.50,1,5,0.913,0.065,-0.007,-0.403,22.73,1.94,24.29,0.24
hyu, -6.33,0.05,-6.32,1006.487,-0.016999,0.146857,0.228850,49.250755,-123.234100,57.50,1,5,0.915,0.070,-0.004,-0.398,22.76,1.93,24.27,0.25
hyu, -6.33,0.08,-6.34,1006.490,0.078793,0.178225,0.186369,49.250755,-123.234100,57.50,1,5,0.915,0.069,0.002,-0.396,22.79,1.94,24.25,0.27
hyu, -6.33,0.08,-6.34,1006.490,0.166831,0.015268,0.007167,49.250755,-123.234100,57.50,1,5,0.915,0.064,0.011,-0.398,22.82,1.96,24.23,0.26
hyu, -6.33,0.04,-6.38,1006.495,0.187999,-0.022125,-0.248867,49.250755,-123.234100,57.50,1,5,0.915,0.057,0.021,-0.400,22.85,1.98,24.21,0.25
hyu, -6.33,-0.04,-6.38,1006.495,0.252011,-0.229419,-0.455932,49.250755,-123.234100,57.50,1,5,0.916,0.051,0.030,-0.396,22.89,2.02,24.19,0.20
hyu, -6.33,-0.13,-6.27,1006.482,0.214319,-0.197284,-0.514566,49.250755,-123.234100,57.50,1,5,0.920,0.049,0.035,-0.388,22.92,2.05,24.17,0.15
hyu, -6.33,-0.20,-6.27,1006.482,0.154311,-0.138421,-0.447257,49.250755,-123.234100,57.50,1,5,0.923,0.050,0.038,-0.379,22.95,2.06,24.15,0.12
hyu, -6.33,-0.26,-6.29,1006.483,0.132384,-0.073193,-0.361509,49.250755,-123.234100,57.50,1,5,0.926,0.054,0.037,-0.371,22.97,2.08,24.13,0.10
hyu, -6.34,-0.30,-6.29,1006.483,0.094741,-0.054893,-0.237879,49.250755,-123.234100,57.50,1,5,0.928,0.056,0.033,-0.367,23.00,2.08,24.11,0.08
hyu, -6.34,-0.33,-6.36,1006.492,0.099372,-0.090715,-0.168485,49.250755,-123.234100,57.50,1,5,0.929,0.057,0.026,-0.366,23.03,2.09,24.09,0.06
hyu, -6.35,-0.35,-6.36,1006.492,0.130328,-0.156726,-0.084634,49.250755,-123.234100,57.50,1,5,0.929,0.057,0.014,-0.366,23.06,2.10,24.07,0.02
hyu, -6.35,-0.34,-6.37,1006.493,0.108012,-0.203917,0.009633,49.250755,-123.234100,57.50,1,5,0.929,0.055,0.001,-0.367,23.09,2.11,24.05,-0.02
hyu, -6.36,-0.33,-6.37,1006.493,0.077605,-0.231634,0.098076,49.250755,-123.234100,57.50,1,5,0.929,0.054,-0.012,-0.367,23.11,2.11,24.03,-0.07
hyu, -6.37,-0.31,-6.40,1006.497,0.035641,-0.191823,0.121767,49.250755,-123.234100,57.50,1,5,0.929,0.053,-0.023,-0.367,23.14,2.10,24.01,-0.11
hyu, -6.37,-0.27,-6.40,1006.497,0.016524,-0.159367,0.224721,49.250755,-123.234100,57.50,1,5,0.929,0.053,-0.032,-0.366,23.16,2.09,23.99,-0.14
hyu, -6.38,-0.22,-6.42,1006.500,0.010561,-0.172060,0.259808,49.250755,-123.234100,57.50,1,5,0.929,0.052,-0.037,-0.365,23.18,2.08,23.97,-0.18
hyu, -6.38,-0.18,-6.42,1006.500,-0.019782,-0.166918,0.227050,49.250755,-123.234100,57.50,1,5,0.929,0.050,-0.040,-0.364,23.21,2.06,23.95,-0.21
hyu, -6.38,-0.14,-6.42,1006.500,-0.037794,-0.163581,0.259992,49.250755,-123.234100,57.50,1,5,0.930,0.048,-0.040,-0.363,23.23,2.04,23.93,-0.24
hyu, -6.39,-0.09,-6.42,1006.500,-0.051604,-0.141010,0.280627,49.250755,-123.234100,57.50,1,5,0.930,0.047,-0.038,-0.362,23.25,2.01,23.91,-0.27
hyu, -6.39,-0.04,-6.44,1006.502,-0.067974,-0.126085,0.257038,49.250755,-123.234100,57.50,1,5,0.930,0.045,-0.033,-0.362,23.27,1.99,23.89,-0.30
hyu, -6.39,-0.03,-6.44,1006.502,-0.080186,-0.098542,0.113521,49.250755,-123.234100,57.50,1,5,0.930,0.044,-0.027,-0.364,23.29,1.96,23.87,-0.32
hyu, -6.39,-0.02,-6.49,1006.508,-0.105511,-0.102777,0.057472,49.250755,-123.234100,57.50,1,5,0.929,0.045,-0.021,-0.367,23.31,1.92,23.85,-0.34
hyu, -6.39,-0.00,-6.49,1006.508,-0.123593,-0.087243,0.077819,49.250755,-123.234100,57.50,1,5,0.928,0.047,-0.016,-0.369,23.32,1.88,23.83,-0.36
hyu, -6.40,0.01,-6.52,1006.512,-0.120553,-0.110231,0.100203,49.250755,-123.234100,57.50,1,5,0.927,0.051,-0.014,-0.371,23.34,1.85,23.81,-0.38
hyu, -6.40,0.04,-6.52,1006.512,-0.078446,-0.126432,0.122631,49.250755,-123.234100,57.50,1,6,0.926,0.056,-0.013,-0.373,23.35,1.81,23.79,-0.40
hyu, -6.40,0.07,-6.56,1006.516,-0.031572,-0.147357,0.213239,49.250755,-123.234100,57.50,1,6,0.925,0.062,-0.011,-0.374,23.37,1.79,23.78,-0.43
hyu, -6.40,0.11,-6.56,1006.516,-0.054269,-0.123307,0.220496,49.250755,-123.234100,57.50,1,6,0.925,0.066,-0.007,-0.374,23.38,1.76,23.76,-0.45
hyu, -6.40,0.13,-6.59,1006.520,-0.074694,-0.051310,0.119631,49.250755,-123.234100,57.50,1,6,0.925,0.069,-0.002,-0.375,23.39,1.73,23.74,-0.46
hyu, -6.40,0.12,-6.59,1006.520,-0.034231,-0.025257,-0.032014,49.250755,-123.234100,57.50,1,6,0.924,0.069,0.005,-0.377,23.40,1.71,23.72,-0.47
hyu, -6.40,0.09,-6.55,1006.515,0.015407,-0.049981,-0.179667,49.250755,-123.234100,57.50,1,6,0.923,0.067,0.011,-0.379,23.42,1.69,23.70,-0.47
hyu, -6.40,0.05,-6.55,1006.515,0.083900,-0.123672,-0.266441,49.250755,-123.234100,57.50,1,6,0.921,0.066,0.015,-0.383,23.43,1.69,23.68,-0.49
hyu, -6.40,-0.01,-6.55,1006.515,0.131581,-0.184402,-0.291695,49.250755,-123.234100,57.50,1,6,0.920,0.066,0.019,-0.385,23.44,1.69,23.66,-0.53
hyu, -6.41,-0.06,-6.55,1006.515,0.132983,-0.223028,-0.293304,49.250755,-123.234100,57.50,1,6,0.920,0.067,0.021,-0.385,23.45,1.69,23.65,-0.56
hyu, -6.41,-0.09,-6.48,1006.507,0.094558,-0.204198,-0.172600,49.250755,-123.234100,57.50,1,6,0.920,0.068,0.022,-0.385,23.45,1.69,23.63,-0.60
hyu, -6.41,-0.12,-6.48,1006.507,0.032273,-0.129767,-0.186102,49.250755,-123.234100,57.50,1,6,0.920,0.068,0.020,-0.385,23.46,1.68,23.61,-0.62
hyu, -6.41,-0.14,-6.40,1006.497,0.051729,-0.133695,-0.147644,49.250755,-123.234100,57.50,1,6,0.919,0.066,0.015,-0.388,23.47,1.66,23.59,-0.64
hyu, -6.42,-0.17,-6.40,1006.497,0.067876,-0.180501,-0.145702,49.250755,-123.234100,57.50,1,6,0.918,0.064,0.007,-0.392,23.48,1.66,23.57,-0.67
hyu, -6.42,-0.18,-6.39,1006.495,0.110300,-0.214337,-0.082095,49.250755,-123.234100,57.50,1,6,0.916,0.062,-0.002,-0.395,23.49,1.65,23.56,-0.70
hyu, -6.42,-0.19,-6.39,1006.495,0.120637,-0.204499,-0.053762,49.250755,-123.234100,57.50,1,6,0.916,0.061,-0.011,-0.397,23.50,1.65,23.54,-0.73
hyu, -6.42,-0.17,-6.36,1006.492,0.102006,-0.178145,0.082837,49.250755,-123.234100,57.50,1,6,0.915,0.062,-0.019,-0.398,23.50,1.65,23.52,-0.76
hyu, -6.42,-0.13,-6.36,1006.492,0.024517,-0.110874,0.226122,49.250755,-123.234100,57.50,1,6,0.915,0.063,-0.028,-0.397,23.51,1.63,23.50,-0.77
hyu, -6.42,-0.07,-6.28,1006.482,-0.023958,0.000234,0.340232,49.250755,-123.234100,57.50,1,6,0.915,0.062,-0.034,-0.396,23.52,1.61,23.49,-0.77
hyu, -6.42,-0.03,-6.28,1006.482,-0.021343,0.038865,0.242054,49.250755,-123.234100,57.50,1,6,0.915,0.059,-0.037,-0.397,23.52,1.58,23.47,-0.76
hyu, -6.42,-0.01,-6.28,1006.482,0.016777,0.000662,0.120518,49.250755,-123.234100,57.50,1,6,0.915,0.057,-0.039,-0.398,23.53,1.57,23.45,-0.75
hyu, -6.42,0.00,-6.28,1006.482,0.031708,-0.037284,0.072090,49.250755,-123.234100,57.50,1,6,0.915,0.057,-0.041,-0.397,23.53,1.55,23.44,-0.75
hyu, -6.42,0.02,-6.25,1006.479,0.017882,-0.032142,0.113151,49.250755,-123.234100,57.50,1,6,0.916,0.060,-0.042,-0.395,23.54,1.53,23.42,-0.75
hyu, -6.41,0.08,-6.25,1006.479,-0.037029,-0.010091,0.301550,49.250755,-123.234100,57.50,1,6,0.917,0.064,-0.042,-0.392,23.54,1.50,23.41,-0.75
hyu, -6.41,0.15,-6.21,1006.474,-0.127013,0.044734,0.430258,49.250755,-123.234100,57.50,1,6,0.918,0.066,-0.039,-0.388,23.55,1.46,23.39,-0.73
hyu, -6.40,0.22,-6.21,1006.474,-0.131761,0.089922,0.362098,49.250755,-123.234100,57.50,1,6,0.920,0.065,-0.032,-0.386,23.55,1.42,23.38,-0.71
hyu, -6.40,0.23,-6.29,1006.484,-0.055467,0.064302,0.076956,49.250755,-123.234100,57.50,1,6,0.920,0.061,-0.025,-0.386,23.55,1.38,23.36,-0.69
hyu, -6.39,0.22,-6.29,1006.484,0.023764,-0.005086,-0.068942,49.250755,-123.234100,57.50,1,6,0.920,0.059,-0.017,-0.386,23.55,1.37,23.35,-0.69
hyu, -6.39,0.18,-6.26,1006.481,0.047402,0.003224,-0.238184,49.250755,-123.234100,57.50,1,6,0.921,0.060,-0.011,-0.385,23.55,1.35,23.34,-0.68
hyu, -6.38,0.14,-6.26,1006.481,0.031947,0.025110,-0.220249,49.250755,-123.234100,57.50,1,6,0.922,0.066,-0.007,-0.381,23.55,1.34,23.33,-0.67
hyu, -6.38,0.13,-6.28,1006.482,-0.001260,0.093566,-0.061996,49.250755,-123.234100,57.50,1,6,0.924,0.072,-0.005,-0.376,23.55,1.31,23.32,-0.64
hyu, -6.37,0.14,-6.28,1006.482,-0.027605,0.130701,0.043019,49.250755,-123.234100,57.50,1,6,0.925,0.077,-0.004,-0.372,23.55,1.29,23.31,-0.61
hyu, -6.37,0.15,-6.33,1006.489,0.007235,0.104606,0.041147,49.250755,-123.234100,57.50,1,6,0.925,0.079,-0.001,-0.371,23.55,1.27,23.30,-0.59
hyu, -6.37,0.15,-6.33,1006.489,0.078869,0.033329,-0.021962,49.250755,-123.234100,57.50,1,6,0.925,0.077,0.003,-0.373,23.55,1.26,23.29,-0.57
hyu, -6.36,0.11,-6.30,1006.485,0.135365,-0.077680,-0.222423,49.250755,-123.234100,57.50,1,6,0.924,0.074,0.007,-0.375,23.55,1.26,23.28,-0.58
hyu, -6.36,0.04,-6.30,1006.485,0.171739,-0.172666,-0.390941,49.250755,-123.234100,57.50,1,6,0.924,0.071,0.011,-0.375,23.55,1.27,23.27,-0.60
hyu, -6.36,-0.04,-6.29,1006.484,0.188463,-0.196204,-0.474640,49.250755,-123.234100,57.50,1,6,0.925,0.070,0.013,-0.372,23.55,1.28,23.26,-0.62
hyu, -6.36,-0.10,-6.29,1006.484,0.155773,-0.167794,-0.382661,49.250755,-123.234100,57.50,1,6,0.927,0.073,0.013,-0.367,23.55,1.28,23.25,-0.64
hyu, -6.36,-0.14,-6.23,1006.477,0.103233,-0.121385,-0.208144,49.250755,-123.234100,57.50,1,6,0.929,0.077,0.012,-0.362,23.55,1.28,23.24,-0.65
hyu, -6.36,-0.16,-6.23,1006.477,0.047225,-0.075125,-0.130850,49.250755,-123.234100,57.50,1,6,0.931,0.080,0.009,-0.357,23.55,1.27,23.24,-0.66
GPS update failed, maybe no data in buffer? or wrong Pin connection (RX-TX)
hyu, -6.36,-0.16,-6.29,1006.484,0.050629,-0.074436,-0.012736,49.250755,-123.234100,57.50,1,6,0.932,0.080,0.004,-0.354,23.55,1.25,23.23,-0.66
hyu, -6.37,-0.17,-6.29,1006.484,0.016688,-0.091696,-0.062517,49.250755,-123.234100,57.50,1,6,0.932,0.079,-0.001,-0.354,23.55,1.23,23.22,-0.66
hyu, -6.37,-0.17,-6.35,1006.490,0.039509,-0.131003,-0.015370,49.250755,-123.234100,57.50,1,6,0.932,0.078,-0.008,-0.354,23.55,1.22,23.21,-0.68
hyu, -6.37,-0.16,-6.35,1006.490,0.032327,-0.165486,0.033528,49.250755,-123.234100,57.50,1,6,0.931,0.076,-0.015,-0.355,23.55,1.20,23.20,-0.69
hyu, -6.37,-0.16,-6.39,1006.496,0.019673,-0.189246,0.043535,49.250755,-123.234100,57.50,1,6,0.931,0.074,-0.023,-0.357,23.54,1.19,23.19,-0.72
hyu, -6.38,-0.14,-6.39,1006.496,0.031271,-0.215717,0.089812,49.250755,-123.234100,57.50,1,6,0.930,0.073,-0.029,-0.358,23.54,1.17,23.19,-0.74
hyu, -6.38,-0.12,-6.41,1006.499,0.042136,-0.226057,0.130731,49.250755,-123.234100,57.50,1,6,0.930,0.073,-0.034,-0.360,23.54,1.16,23.18,-0.77
hyu, -6.38,-0.10,-6.41,1006.499,0.039260,-0.232451,0.093810,49.250755,-123.234100,57.50,1,6,0.929,0.072,-0.038,-0.362,23.54,1.14,23.17,-0.80
hyu, -6.38,-0.09,-6.43,1006.500,0.043415,-0.230332,0.050025,49.250755,-123.234100,57.50,1,6,0.928,0.071,-0.041,-0.363,23.54,1.13,23.16,-0.83
hyu, -6.39,-0.08,-6.43,1006.500,0.003416,-0.231382,0.093388,49.250755,-123.234100,57.50,1,6,0.928,0.073,-0.044,-0.364,23.53,1.11,23.15,-0.86
hyu, -6.39,-0.03,-6.61,1006.522,-0.100551,-0.181023,0.291136,49.250755,-123.234100,57.50,1,6,0.927,0.075,-0.047,-0.364,23.53,1.07,23.14,-0.87
hyu, -6.39,0.04,-6.61,1006.522,-0.184672,-0.112162,0.375695,49.250755,-123.234100,57.50,1,6,0.926,0.075,-0.047,-0.366,23.53,1.01,23.13,-0.88
hyu, -6.40,0.10,-6.58,1006.518,-0.184661,-0.110019,0.369919,49.250755,-123.234100,57.50,1,6,0.925,0.074,-0.043,-0.370,23.52,0.96,23.12,-0.89
hyu, -6.40,0.16,-6.58,1006.518,-0.179759,-0.134064,0.365368,49.250679,-123.234123,57.50,1,6,0.924,0.072,-0.036,-0.374,23.47,0.88,22.88,-1.07
hyu, -6.39,0.19,-6.54,1006.513,-0.133149,-0.100255,0.144708,49.250679,-123.234123,57.50,1,6,0.923,0.068,-0.027,-0.378,23.42,0.80,22.65,-1.25
hyu, -6.39,0.17,-6.54,1006.513,-0.019292,-0.124358,-0.091198,49.250679,-123.234123,57.50,1,6,0.921,0.064,-0.018,-0.384,23.37,0.74,22.42,-1.42
hyu, -6.39,0.13,-6.51,1006.510,0.056787,-0.226859,-0.235659,49.250679,-123.234123,57.50,1,6,0.919,0.065,-0.012,-0.388,23.32,0.70,22.20,-1.60
hyu, -6.39,0.09,-6.51,1006.510,0.049045,-0.239023,-0.213713,49.250679,-123.234123,57.50,1,6,0.918,0.070,-0.008,-0.390,23.28,0.66,21.98,-1.79
hyu, -6.39,0.10,-6.41,1006.499,0.027657,-0.196228,0.020454,49.250679,-123.234123,57.50,1,6,0.917,0.077,-0.007,-0.390,23.23,0.61,21.76,-1.96
hyu, -6.39,0.11,-6.41,1006.499,-0.013967,-0.065503,0.082109,49.250679,-123.234123,57.50,1,6,0.917,0.082,-0.004,-0.390,23.18,0.56,21.54,-2.10
hyu, -6.39,0.11,-6.40,1006.497,0.007770,0.017677,0.009176,49.250679,-123.234123,57.50,1,6,0.916,0.083,-0.001,-0.393,23.13,0.52,21.32,-2.22
hyu, -6.39,0.09,-6.40,1006.497,0.075091,-0.045212,-0.110078,49.250679,-123.234123,57.50,1,6,0.914,0.081,-0.000,-0.398,23.09,0.48,21.11,-2.36
hyu, -6.38,0.06,-6.39,1006.495,0.117202,-0.125443,-0.188545,49.250679,-123.234123,57.50,1,6,0.912,0.077,-0.001,-0.403,23.04,0.46,20.91,-2.50
hyu, -6.38,0.03,-6.39,1006.495,0.133614,-0.206002,-0.194645,49.250679,-123.234123,57.50,1,6,0.911,0.073,-0.002,-0.406,23.00,0.43,20.70,-2.65
hyu, -6.38,-0.01,-6.40,1006.497,0.159968,-0.225254,-0.251039,49.250679,-123.234123,57.50,1,6,0.911,0.071,-0.002,-0.407,22.95,0.42,20.50,-2.80
hyu, -6.38,-0.06,-6.40,1006.497,0.155574,-0.194470,-0.283259,49.250679,-123.234123,57.50,1,6,0.911,0.070,-0.001,-0.406,22.91,0.40,20.31,-2.94
hyu, -6.39,-0.10,-6.33,1006.489,0.113421,-0.152677,-0.234747,49.250679,-123.234123,57.50,1,6,0.912,0.070,-0.002,-0.405,22.87,0.38,20.11,-3.07
hyu, -6.39,-0.14,-6.33,1006.489,0.098365,-0.124661,-0.195512,49.250679,-123.234123,57.50,1,6,0.912,0.069,-0.003,-0.405,22.82,0.35,19.92,-3.18
hyu, -6.39,-0.17,-6.33,1006.489,0.135269,-0.170578,-0.197115,49.250679,-123.234123,57.50,1,6,0.911,0.069,-0.006,-0.406,22.78,0.34,19.73,-3.31
hyu, -6.39,-0.19,-6.33,1006.489,0.142806,-0.231416,-0.149315,49.250679,-123.234123,57.50,1,6,0.910,0.069,-0.011,-0.408,22.74,0.32,19.54,-3.44
hyu, -6.40,-0.20,-6.44,1006.502,0.115279,-0.178258,-0.064833,49.250679,-123.234123,57.50,1,6,0.910,0.069,-0.018,-0.408,22.70,0.30,19.36,-3.56
hyu, -6.40,-0.20,-6.44,1006.502,0.126374,-0.126093,0.009965,49.250679,-123.234123,57.50,1,6,0.910,0.068,-0.027,-0.408,22.67,0.29,19.18,-3.66
hyu, -6.40,-0.19,-6.33,1006.489,0.107808,-0.131198,0.053634,49.250679,-123.234123,57.50,1,6,0.910,0.068,-0.037,-0.407,22.63,0.27,19.00,-3.76
hyu, -6.40,-0.17,-6.33,1006.489,0.067559,-0.138988,0.128549,49.250679,-123.234123,57.50,1,6,0.910,0.068,-0.047,-0.406,22.59,0.24,18.83,-3.86
hyu, -6.41,-0.12,-6.40,1006.497,0.001598,-0.111469,0.294028,49.250679,-123.234123,57.50,1,6,0.911,0.068,-0.055,-0.403,22.55,0.21,18.65,-3.95
hyu, -6.41,-0.07,-6.40,1006.497,-0.072304,-0.020123,0.293795,49.250679,-123.234123,57.50,1,6,0.913,0.068,-0.059,-0.399,22.52,0.16,18.49,-4.03
hyu, -6.41,-0.02,-6.36,1006.492,-0.075549,0.032931,0.256760,49.250679,-123.234123,57.50,1,6,0.914,0.066,-0.060,-0.395,22.48,0.11,18.32,-4.08
hyu, -6.41,0.01,-6.36,1006.492,-0.071170,0.013654,0.208217,49.250679,-123.234123,57.50,1,6,0.915,0.064,-0.059,-0.393,22.44,0.07,18.16,-4.14
hyu, -6.41,0.05,-6.33,1006.489,-0.065889,0.033989,0.193835,49.250679,-123.234123,57.50,1,6,0.916,0.063,-0.055,-0.391,22.41,0.02,18.00,-4.20
hyu, -6.40,0.08,-6.33,1006.489,-0.070236,0.008283,0.193803,49.250679,-123.234123,57.50,1,6,0.918,0.063,-0.049,-0.390,22.37,-0.02,17.85,-4.25
hyu, -6.40,0.12,-6.32,1006.487,-0.034680,0.009315,0.190774,49.250679,-123.234123,57.50,1,6,0.919,0.062,-0.042,-0.388,22.34,-0.06,17.69,-4.30
hyu, -6.40,0.12,-6.32,1006.487,-0.005237,0.011952,0.037417,49.250679,-123.234123,57.50,1,6,0.920,0.060,-0.035,-0.386,22.30,-0.09,17.54,-4.35
hyu, -6.39,0.11,-6.26,1006.480,0.033509,-0.039664,-0.064148,49.250679,-123.234123,57.50,1,6,0.921,0.059,-0.031,-0.385,22.27,-0.11,17.40,-4.40
hyu, -6.39,0.09,-6.26,1006.480,0.031082,-0.046427,-0.130280,49.250679,-123.234123,57.50,1,6,0.922,0.059,-0.029,-0.382,22.23,-0.14,17.26,-4.45
hyu, -6.39,0.07,-6.33,1006.489,0.017488,-0.030486,-0.149183,49.250679,-123.234123,57.50,1,6,0.923,0.061,-0.028,-0.380,22.20,-0.16,17.12,-4.50
hyu, -6.39,0.05,-6.33,1006.489,-0.024326,0.003016,-0.091276,49.250679,-123.234123,57.50,1,6,0.923,0.066,-0.027,-0.377,22.17,-0.19,16.98,-4.53
hyu, -6.38,0.06,-6.37,1006.494,-0.086606,0.028778,0.032434,49.250679,-123.234123,57.50,1,6,0.924,0.071,-0.026,-0.375,22.13,-0.24,16.85,-4.56
hyu, -6.38,0.07,-6.37,1006.494,-0.067889,0.040340,0.070978,49.250679,-123.234123,57.50,1,6,0.924,0.074,-0.026,-0.374,22.10,-0.27,16.71,-4.59
hyu, -6.38,0.08,-6.28,1006.482,0.026356,-0.027327,0.019541,49.250679,-123.234123,57.50,1,6,0.924,0.074,-0.024,-0.376,22.07,-0.29,16.59,-4.62
hyu, -6.38,0.06,-6.28,1006.482,0.137646,-0.113621,-0.114249,49.250679,-123.234123,57.50,1,6,0.923,0.072,-0.019,-0.377,22.03,-0.30,16.46,-4.66
hyu, -6.38,0.01,-6.26,1006.481,0.185279,-0.207766,-0.277807,49.250679,-123.234123,57.50,1,6,0.924,0.070,-0.011,-0.376,22.00,-0.29,16.34,-4.72
hyu, -6.37,-0.05,-6.26,1006.481,0.176969,-0.236537,-0.364676,49.250679,-123.234123,57.50,1,6,0.926,0.070,-0.004,-0.371,21.97,-0.28,16.22,-4.79
hyu, -6.37,-0.12,-6.26,1006.481,0.104624,-0.191143,-0.390115,49.250679,-123.234123,57.50,1,6,0.929,0.070,0.002,-0.365,21.94,-0.29,16.10,-4.84
hyu, -6.37,-0.17,-6.26,1006.481,0.033747,-0.145999,-0.326290,49.250679,-123.234123,57.50,1,6,0.931,0.072,0.004,-0.357,21.92,-0.30,15.98,-4.88
hyu, -6.38,-0.22,-6.26,1006.481,-0.020182,-0.089027,-0.274597,49.250679,-123.234123,57.50,1,6,0.933,0.073,0.005,-0.351,21.89,-0.33,15.87,-4.91
hyu, -6.38,-0.25,-6.26,1006.481,-0.022562,-0.092923,-0.217713,49.250679,-123.234123,57.50,1,6,0.934,0.073,0.004,-0.349,21.86,-0.35,15.76,-4.93
hyu, -6.38,-0.28,-6.26,1006.481,-0.001719,-0.140799,-0.165646,49.250679,-123.234123,57.50,1,6,0.935,0.073,-0.001,-0.348,21.83,-0.37,15.65,-4.97
hyu, -6.39,-0.30,-6.39,1006.496,0.024730,-0.196106,-0.082214,49.250679,-123.234123,57.50,1,6,0.934,0.073,-0.007,-0.349,21.80,-0.39,15.54,-5.01
hyu, -6.39,-0.29,-6.39,1006.496,0.023903,-0.234298,0.014198,49.250679,-123.234123,57.50,1,6,0.934,0.073,-0.014,-0.349,21.78,-0.40,15.44,-5.05
hyu, -6.40,-0.28,-6.40,1006.497,0.017947,-0.223782,0.085153,49.250679,-123.234123,57.50,1,6,0.934,0.074,-0.021,-0.350,21.75,-0.42,15.34,-5.09
hyu, -6.40,-0.26,-6.40,1006.497,0.009775,-0.234551,0.122877,49.250679,-123.234123,57.50,1,6,0.933,0.074,-0.026,-0.351,21.73,-0.44,15.24,-5.14
hyu, -6.41,-0.23,-6.40,1006.497,-0.030310,-0.232590,0.175432,49.250679,-123.234123,57.50,1,6,0.932,0.075,-0.030,-0.352,21.70,-0.46,15.14,-5.17
hyu, -6.41,-0.19,-6.40,1006.497,-0.017714,-0.198327,0.183125,49.250679,-123.234123,57.50,1,6,0.932,0.074,-0.034,-0.353,21.68,-0.48,15.04,-5.20
hyu, -6.41,-0.16,-6.43,1006.500,0.016047,-0.261487,0.199105,49.250679,-123.234123,57.50,1,6,0.931,0.074,-0.037,-0.356,21.65,-0.49,14.95,-5.24
hyu, -6.42,-0.11,-6.43,1006.500,0.002970,-0.272424,0.273392,49.250679,-123.234123,57.50,1,6,0.930,0.074,-0.039,-0.359,21.63,-0.51,14.86,-5.28
hyu, -6.42,-0.05,-6.43,1006.500,-0.050703,-0.280793,0.346657,49.250679,-123.234123,57.50,1,6,0.929,0.072,-0.040,-0.361,21.60,-0.53,14.77,-5.32
hyu, -6.42,0.00,-6.43,1006.500,-0.085411,-0.260202,0.321209,49.250679,-123.234123,57.50,1,6,0.929,0.069,-0.038,-0.363,21.58,-0.56,14.68,-5.36
hyu, -6.42,0.06,-6.41,1006.499,-0.118282,-0.265222,0.303379,49.250679,-123.234123,57.50,1,6,0.928,0.066,-0.034,-0.365,21.55,-0.60,14.59,-5.39
hyu, -6.42,0.09,-6.41,1006.499,0.002313,-0.371472,0.195987,49.250679,-123.234123,57.50,1,6,0.927,0.062,-0.028,-0.369,21.53,-0.61,14.50,-5.44
hyu, -6.41,0.11,-6.40,1006.497,-0.135649,-0.123600,0.106829,49.250679,-123.234123,57.50,1,6,0.926,0.057,-0.020,-0.373,21.51,-0.65,14.42,-5.44
hyu, -6.41,0.10,-6.40,1006.497,-0.131169,-0.113176,-0.045595,49.250679,-123.234123,57.50,1,6,0.924,0.055,-0.013,-0.379,21.48,-0.69,14.34,-5.44
hyu, -6.41,0.08,-6.30,1006.485,-0.024904,-0.235970,-0.133623,49.250679,-123.234123,57.50,1,6,0.922,0.053,-0.006,-0.385,21.46,-0.70,14.26,-5.46
hyu, -6.41,0.07,-6.30,1006.485,0.031394,-0.284113,-0.066126,49.250679,-123.234123,57.50,1,6,0.919,0.055,-0.001,-0.390,21.44,-0.71,14.18,-5.49
hyu, -6.40,0.07,-6.29,1006.484,-0.018017,-0.235340,0.008844,49.250679,-123.234123,57.50,1,6,0.918,0.058,0.004,-0.392,21.41,-0.72,14.10,-5.51
hyu, -6.40,0.08,-6.29,1006.484,-0.032705,-0.083714,0.032943,49.250679,-123.234123,57.50,1,6,0.917,0.061,0.008,-0.393,21.39,-0.74,14.03,-5.50
hyu, -6.40,0.08,-6.39,1006.495,-0.002912,0.010098,-0.018701,49.250679,-123.234123,57.50,1,6,0.916,0.061,0.013,-0.396,21.37,-0.75,13.96,-5.47
hyu, -6.40,0.06,-6.39,1006.495,0.044083,-0.013778,-0.081536,49.250679,-123.234123,57.50,1,6,0.914,0.060,0.016,-0.401,21.35,-0.76,13.89,-5.44
hyu, -6.40,0.05,-6.39,1006.495,0.089870,-0.108643,-0.068737,49.250679,-123.234123,57.50,1,6,0.912,0.057,0.018,-0.406,21.33,-0.75,13.82,-5.43
hyu, -6.40,0.04,-6.39,1006.495,0.105048,-0.170834,-0.079642,49.250652,-123.234131,57.50,1,6,0.911,0.053,0.019,-0.409,21.29,-0.75,13.68,-5.49
hyu, -6.39,0.02,-6.40,1006.497,0.110059,-0.173038,-0.117752,49.250652,-123.234131,57.50,1,6,0.910,0.050,0.022,-0.410,21.26,-0.75,13.54,-5.55
hyu, -6.39,-0.01,-6.40,1006.497,0.079333,-0.096812,-0.158629,49.250652,-123.234131,57.50,1,6,0.910,0.047,0.025,-0.411,21.23,-0.76,13.40,-5.59
hyu, -6.40,-0.05,-6.39,1006.495,0.039765,-0.035796,-0.236230,49.250652,-123.234131,57.50,1,6,0.909,0.044,0.025,-0.413,21.19,-0.77,13.26,-5.62
hyu, -6.40,-0.10,-6.39,1006.495,0.067638,-0.064654,-0.303383,49.250652,-123.234131,57.50,1,6,0.907,0.039,0.023,-0.418,21.16,-0.78,13.13,-5.65
hyu, -6.40,-0.16,-6.35,1006.490,0.134169,-0.161137,-0.370845,49.250652,-123.234131,57.50,1,6,0.905,0.036,0.016,-0.424,21.13,-0.77,13.00,-5.69
hyu, -6.40,-0.21,-6.35,1006.490,0.162505,-0.240075,-0.297341,49.250652,-123.234131,57.50,1,6,0.903,0.035,0.007,-0.428,21.10,-0.76,12.87,-5.75
hyu, -6.40,-0.23,-6.40,1006.497,0.132544,-0.220275,-0.105698,49.250652,-123.234131,57.50,1,6,0.902,0.036,-0.004,-0.430,21.07,-0.76,12.75,-5.79
hyu, -6.41,-0.21,-6.40,1006.497,0.063702,-0.125979,0.097421,49.250652,-123.234131,57.50,1,6,0.902,0.037,-0.015,-0.430,21.04,-0.76,12.62,-5.82
hyu, -6.41,-0.18,-6.43,1006.500,0.012300,-0.025368,0.211665,49.250652,-123.234131,57.50,1,6,0.902,0.036,-0.025,-0.430,21.02,-0.77,12.51,-5.83
hyu, -6.41,-0.14,-6.43,1006.500,-0.027396,-0.018359,0.240262,49.250652,-123.234131,57.50,1,6,0.901,0.033,-0.032,-0.431,20.99,-0.79,12.39,-5.84
hyu, -6.42,-0.08,-6.41,1006.499,0.010036,-0.246541,0.301781,49.250652,-123.234131,57.50,1,6,0.902,0.030,-0.034,-0.430,20.96,-0.80,12.28,-5.88
hyu, -6.42,-0.08,-6.41,1006.499,0.004424,-0.098830,0.036121,49.250652,-123.234131,57.50,1,6,0.903,0.026,-0.032,-0.428,20.94,-0.82,12.16,-5.90
hyu, -6.42,-0.09,-6.35,1006.491,-0.032220,-0.046268,-0.056646,49.250652,-123.234131,57.50,1,6,0.904,0.025,-0.030,-0.426,20.91,-0.84,12.06,-5.90
hyu, -6.42,-0.07,-6.35,1006.491,0.003124,-0.006305,0.106361,49.250652,-123.234131,57.50,1,6,0.906,0.026,-0.029,-0.422,20.89,-0.85,11.95,-5.90
hyu, -6.42,-0.04,-6.31,1006.486,-0.060393,0.063557,0.175692,49.250652,-123.234131,57.50,1,6,0.907,0.029,-0.025,-0.419,20.86,-0.87,11.85,-5.88
hyu, -6.42,0.01,-6.31,1006.486,-0.089528,0.124554,0.230108,49.250652,-123.234131,57.50,1,6,0.909,0.031,-0.021,-0.415,20.84,-0.90,11.75,-5.85
hyu, -6.41,0.05,-6.24,1006.478,-0.060928,0.094054,0.227722,49.250652,-123.234131,57.50,1,6,0.909,0.031,-0.017,-0.414,20.81,-0.92,11.65,-5.82
hyu, -6.41,0.05,-6.24,1006.478,-0.027835,0.043138,0.030359,49.250652,-123.234131,57.50,1,6,0.909,0.029,-0.012,-0.416,20.79,-0.93,11.56,-5.80
hyu, -6.41,0.04,-6.21,1006.474,0.036269,-0.069991,-0.106102,49.250652,-123.234131,57.50,1,6,0.909,0.027,-0.009,-0.417,20.76,-0.94,11.47,-5.79
hyu, -6.40,0.01,-6.21,1006.474,0.074751,-0.118373,-0.140951,49.250652,-123.234131,57.50,1,6,0.909,0.028,-0.007,-0.416,20.74,-0.93,11.38,-5.79
hyu, -6.40,-0.02,-6.17,1006.469,0.021440,-0.089467,-0.215601,49.250652,-123.234131,57.50,1,6,0.911,0.032,-0.005,-0.412,20.72,-0.94,11.30,-5.79
hyu, -6.40,-0.02,-6.17,1006.469,-0.038487,-0.010736,0.001961,49.250652,-123.234131,57.50,1,6,0.913,0.038,-0.003,-0.407,20.70,-0.95,11.21,-5.77
hyu, -6.39,0.01,-6.20,1006.473,-0.118887,0.057231,0.183020,49.250652,-123.234131,57.50,1,6,0.915,0.045,-0.000,-0.402,20.67,-0.98,11.13,-5.74
hyu, -6.39,0.04,-6.20,1006.473,-0.135721,0.114989,0.172711,49.250652,-123.234131,57.50,1,6,0.915,0.047,0.005,-0.400,20.65,-1.01,11.05,-5.69
hyu, -6.39,0.05,-6.24,1006.477,-0.044970,0.063137,0.033195,49.250652,-123.234131,57.50,1,6,0.915,0.045,0.011,-0.400,20.63,-1.03,10.98,-5.65
hyu, -6.39,0.01,-6.24,1006.477,0.041187,-0.055261,-0.257838,49.250652,-123.234131,57.50,1,6,0.914,0.042,0.018,-0.403,20.61,-1.03,10.91,-5.64
hyu, -6.38,-0.08,-6.17,1006.469,0.089229,-0.165620,-0.517214,49.250652,-123.234131,57.50,1,6,0.913,0.041,0.024,-0.404,20.59,-1.02,10.84,-5.63
hyu, -6.38,-0.19,-6.17,1006.469,0.106478,-0.207408,-0.647908,49.250652,-123.234131,57.50,1,6,0.914,0.044,0.025,-0.403,20.57,-1.01,10.77,-5.64
hyu, -6.38,-0.28,-6.17,1006.469,0.112670,-0.180989,-0.565220,49.250652,-123.234131,57.50,1,6,0.914,0.051,0.023,-0.401,20.55,-0.99,10.70,-5.64
hyu, -6.39,-0.35,-6.17,1006.469,0.081721,-0.127650,-0.377938,49.250652,-123.234131,57.50,1,6,0.915,0.060,0.017,-0.398,20.53,-0.98,10.63,-5.63
hyu, -6.39,-0.39,-6.17,1006.469,0.075887,-0.099972,-0.242390,49.250652,-123.234131,57.50,1,6,0.915,0.066,0.008,-0.398,20.51,-0.97,10.57,-5.61
hyu, -6.39,-0.40,-6.17,1006.469,0.057529,-0.153914,-0.069804,49.250652,-123.234131,57.50,1,6,0.914,0.070,-0.003,-0.400,20.50,-0.97,10.51,-5.60
hyu, -6.40,-0.38,-6.10,1006.461,0.063073,-0.162026,0.060504,49.250652,-123.234131,57.50,1,6,0.912,0.070,-0.012,-0.404,20.48,-0.96,10.45,-5.59
hyu, -6.40,-0.36,-6.10,1006.461,0.131187,-0.232351,0.118983,49.250652,-123.234131,57.50,1,6,0.909,0.069,-0.019,-0.410,20.47,-0.94,10.39,-5.59
hyu, -6.40,-0.31,-6.17,1006.469,0.158571,-0.608934,0.273604,49.250652,-123.234131,57.50,1,6,0.908,0.069,-0.024,-0.413,20.45,-0.92,10.34,-5.65
hyu, -6.40,-0.29,-6.17,1006.469,0.162175,-0.171958,0.148293,49.250652,-123.234131,57.50,1,6,0.907,0.067,-0.023,-0.414,20.44,-0.89,10.28,-5.64
hyu, -6.40,-0.27,-6.21,1006.474,0.088711,-0.258833,0.079032,49.250652,-123.234131,57.50,1,6,0.908,0.066,-0.021,-0.414,20.42,-0.88,10.23,-5.65
hyu, -6.41,-0.21,-6.21,1006.474,0.095380,-0.188275,0.318994,49.250652,-123.234131,57.50,1,6,0.908,0.066,-0.021,-0.412,20.41,-0.87,10.17,-5.63
hyu, -6.41,-0.18,-6.24,1006.477,0.048147,-0.085025,0.209453,49.250633,-123.234146,57.50,1,6,0.908,0.066,-0.021,-0.413,20.37,-0.88,10.07,-5.65
hyu, -6.41,-0.17,-6.24,1006.477,0.056716,-0.181410,0.058601,49.250633,-123.234146,57.50,1,6,0.907,0.067,-0.022,-0.415,20.33,-0.90,9.96,-5.68
hyu, -6.41,-0.12,-6.31,1006.486,0.099354,-0.249548,0.256900,49.250633,-123.234146,57.50,1,6,0.906,0.068,-0.026,-0.417,20.29,-0.90,9.86,-5.71
hyu, -6.41,-0.06,-6.31,1006.486,0.021568,-0.224811,0.371263,49.250633,-123.234146,57.50,1,6,0.905,0.070,-0.029,-0.418,20.25,-0.92,9.76,-5.74
hyu, -6.41,0.02,-6.29,1006.484,-0.058154,-0.230142,0.421998,49.250633,-123.234146,57.50,1,6,0.905,0.070,-0.031,-0.419,20.21,-0.95,9.66,-5.77
hyu, -6.40,0.09,-6.29,1006.484,-0.118483,-0.189656,0.425537,49.250633,-123.234146,57.50,1,6,0.905,0.069,-0.030,-0.419,20.17,-0.99,9.56,-5.79
hyu, -6.40,0.19,-6.33,1006.489,-0.135569,-0.194589,0.531968,49.250633,-123.234146,57.50,1,6,0.905,0.068,-0.022,-0.419,20.13,-1.04,9.47,-5.81
hyu, -6.40,0.19,-6.33,1006.489,-0.000930,-0.051559,0.043309,49.250633,-123.234146,57.50,1,6,0.905,0.066,-0.013,-0.421,20.09,-1.06,9.38,-5.81
hyu, -6.39,0.19,-6.29,1006.484,-0.019014,-0.211723,-0.043161,49.250633,-123.234146,57.50,1,6,0.904,0.065,-0.004,-0.421,20.06,-1.08,9.29,-5.83
hyu, -6.39,0.16,-6.29,1006.484,0.007995,-0.220790,-0.183094,49.250633,-123.234146,57.50,1,6,0.904,0.067,0.004,-0.422,20.02,-1.09,9.20,-5.85
hyu, -6.38,0.10,-6.22,1006.476,0.035942,-0.215806,-0.360872,49.250633,-123.234146,57.50,1,6,0.903,0.072,0.009,-0.423,19.99,-1.10,9.12,-5.86
hyu, -6.38,0.06,-6.22,1006.476,0.105452,-0.168302,-0.210873,49.250633,-123.234146,57.50,1,6,0.903,0.078,0.009,-0.422,19.95,-1.10,9.03,-5.87
hyu, -6.38,0.07,-6.21,1006.474,0.089294,-0.119459,0.018817,49.250633,-123.234146,57.50,1,6,0.903,0.084,0.009,-0.421,19.92,-1.10,8.95,-5.86
hyu, -6.37,0.09,-6.21,1006.474,0.019635,-0.117872,0.125929,49.250633,-123.234146,57.50,1,6,0.903,0.088,0.010,-0.420,19.88,-1.11,8.87,-5.86
hyu, -6.37,0.11,-6.21,1006.474,0.014220,-0.103894,0.122811,49.250633,-123.234146,57.50,1,6,0.903,0.086,0.010,-0.421,19.85,-1.12,8.80,-5.85
hyu, -6.36,0.10,-6.21,1006.474,0.087299,-0.126232,-0.089674,49.250633,-123.234146,57.50,1,6,0.902,0.079,0.011,-0.424,19.82,-1.12,8.72,-5.84
hyu, -6.36,0.06,-6.24,1006.478,0.117835,-0.230383,-0.245396,49.250633,-123.234146,57.50,1,6,0.901,0.073,0.012,-0.426,19.79,-1.11,8.65,-5.85
hyu, -6.36,0.01,-6.24,1006.478,0.112054,-0.269365,-0.297364,49.250633,-123.234146,57.50,1,6,0.902,0.069,0.012,-0.427,19.76,-1.11,8.58,-5.86
hyu, -6.36,-0.04,-6.20,1006.473,0.076533,-0.273721,-0.265482,49.250633,-123.234146,57.50,1,6,0.903,0.068,0.011,-0.425,19.73,-1.11,8.51,-5.88
hyu, -6.36,-0.08,-6.20,1006.473,0.025266,-0.204784,-0.222441,49.250633,-123.234146,57.50,1,6,0.904,0.067,0.008,-0.422,19.70,-1.11,8.44,-5.88
hyu, -6.35,-0.12,-6.14,1006.466,0.001718,-0.093347,-0.240546,49.250633,-123.234146,57.50,1,6,0.905,0.065,0.003,-0.421,19.68,-1.12,8.38,-5.86
hyu, -6.35,-0.15,-6.14,1006.466,0.004857,-0.114238,-0.188414,49.250633,-123.234146,57.50,1,6,0.905,0.063,-0.005,-0.421,19.65,-1.13,8.31,-5.84
hyu, -6.35,-0.17,-6.18,1006.471,-0.008923,-0.119503,-0.168772,49.250633,-123.234146,57.50,1,6,0.904,0.060,-0.014,-0.422,19.62,-1.14,8.25,-5.82
hyu, -6.35,-0.19,-6.18,1006.471,-0.035197,-0.119641,-0.080375,49.250633,-123.234146,57.50,1,6,0.904,0.057,-0.026,-0.423,19.60,-1.16,8.19,-5.80
hyu, -6.35,-0.18,-6.11,1006.463,-0.061978,-0.110558,0.038034,49.250633,-123.234146,57.50,1,6,0.904,0.055,-0.037,-0.422,19.57,-1.17,8.14,-5.78
hyu, -6.35,-0.14,-6.11,1006.463,-0.101032,-0.045491,0.195711,49.250633,-123.234146,57.50,1,6,0.905,0.052,-0.047,-0.420,19.55,-1.20,8.08,-5.74
hyu, -6.35,-0.05,-6.23,1006.476,-0.251738,0.179609,0.524750,49.250633,-123.234146,57.50,1,6,0.906,0.049,-0.049,-0.417,19.52,-1.25,8.03,-5.67
hyu, -6.35,-0.05,-6.23,1006.476,-0.163376,0.079700,-0.007771,49.250633,-123.234146,57.50,1,6,0.907,0.045,-0.044,-0.415,19.50,-1.28,7.98,-5.61
hyu, -6.35,-0.06,-6.17,1006.470,-0.026154,-0.042168,-0.088751,49.250633,-123.234146,57.50,1,6,0.909,0.040,-0.042,-0.414,19.47,-1.29,7.93,-5.57
hyu, -6.35,-0.07,-6.17,1006.470,0.040108,-0.070553,-0.065024,49.250633,-123.234146,57.50,1,6,0.909,0.036,-0.040,-0.412,19.45,-1.29,7.88,-5.53
hyu, -6.35,-0.07,-6.18,1006.471,0.009192,-0.125035,0.026616,49.250633,-123.234146,57.50,1,6,0.910,0.036,-0.037,-0.411,19.42,-1.30,7.84,-5.51
hyu, -6.35,-0.04,-6.18,1006.471,-0.068398,-0.034377,0.166962,49.250633,-123.234146,57.50,1,6,0.911,0.038,-0.034,-0.409,19.40,-1.31,7.79,-5.47
hyu, -6.34,0.03,-6.17,1006.469,-0.086037,-0.006318,0.374786,49.250633,-123.234146,57.50,1,6,0.912,0.039,-0.030,-0.408,19.38,-1.33,7.75,-5.42
hyu, -6.34,0.07,-6.17,1006.469,-0.065004,-0.025880,0.209963,49.250633,-123.234146,57.50,1,6,0.912,0.036,-0.024,-0.408,19.35,-1.35,7.71,-5.37
hyu, -6.34,0.08,-6.16,1006.468,-0.031284,0.006970,0.065444,49.250633,-123.234146,57.50,1,6,0.912,0.034,-0.019,-0.408,19.33,-1.35,7.68,-5.32
hyu, -6.33,0.09,-6.16,1006.468,-0.024655,-0.043650,0.071000,49.250633,-123.234146,57.50,1,6,0.912,0.033,-0.013,-0.409,19.31,-1.36,7.64,-5.27
hyu, -6.33,0.10,-6.17,1006.469,-0.063222,-0.134553,0.040816,49.250633,-123.234146,57.50,1,6,0.913,0.036,-0.006,-0.407,19.29,-1.37,7.61,-5.24
hyu, -6.33,0.12,-6.17,1006.469,-0.050418,-0.035414,0.091695,49.250633,-123.234146,57.50,1,6,0.914,0.040,-0.001,-0.403,19.27,-1.39,7.57,-5.20
hyu, -6.32,0.13,-6.22,1006.476,-0.068272,0.028413,0.047194,49.250633,-123.234146,57.50,1,6,0.916,0.043,0.005,-0.398,19.25,-1.40,7.54,-5.14
hyu, -6.32,0.14,-6.22,1006.476,0.026311,0.002128,0.085559,49.250607,-123.234146,57.50,1,6,0.917,0.045,0.012,-0.396,19.23,-1.39,7.44,-5.14
hyu, -6.31,0.15,-6.18,1006.471,0.024101,-0.008914,0.021586,49.250607,-123.234146,57.50,1,6,0.917,0.045,0.019,-0.397,19.21,-1.39,7.33,-5.15
hyu, -6.31,0.13,-6.18,1006.471,0.105436,-0.042994,-0.089865,49.250607,-123.234146,57.50,1,6,0.916,0.043,0.027,-0.399,19.19,-1.37,7.23,-5.16
hyu, -6.31,0.08,-6.33,1006.489,0.165210,-0.143848,-0.311023,49.250607,-123.234146,57.50,1,6,0.914,0.040,0.034,-0.401,19.17,-1.34,7.13,-5.18
hyu, -6.31,0.00,-6.33,1006.489,0.128628,-0.156115,-0.449896,49.250607,-123.234146,57.50,1,6,0.914,0.039,0.037,-0.402,19.15,-1.32,7.03,-5.21
