P_Pos, P_Vel, Altitude, Pressure, Acc_X, Acc_Y, Acc_Z, Latitude, Longitude, Altitude_GPS, LOCK, Satellites, q_w, q_x, q_y, q_z
-0.64,-0.08,-0.52,1014.108,-0.059827,-0.053969,0.004309,49.261536,-123.256378,81.60,1,5,0.510,0.002,0.000,-0.860
-0.64,-0.08,-0.39,1014.102,-0.065423,-0.045551,0.005533,49.261536,-123.256378,81.60,1,5,0.510,0.002,0.000,-0.860
-0.63,-0.08,-0.39,1014.093,-0.056168,-0.032083,0.003876,49.261536,-123.256378,81.60,1,5,0.510,0.002,0.001,-0.860
-0.63,-0.08,-0.35,1014.093,-0.059600,-0.031136,-0.007110,49.261536,-123.256378,81.20,1,5,0.510,0.001,0.000,-0.860
-0.63,-0.08,-0.35,1014.088,-0.052684,-0.035844,0.000234,49.261536,-123.256378,81.20,1,5,0.510,0.001,0.000,-0.860
-0.63,-0.08,-0.34,1014.087,-0.062005,-0.044603,-0.002226,49.261536,-123.256378,81.20,1,5,0.510,0.001,0.000,-0.860
-0.62,-0.07,-0.34,1014.087,-0.059069,-0.047029,-0.001977,49.261536,-123.256378,81.20,1,5,0.510,0.001,0.000,-0.860
-0.62,-0.07,-0.34,1014.087,-0.056942,-0.052847,0.004843,49.261536,-123.256378,81.20,1,5,0.510,0.001,0.000,-0.860
-0.62,-0.07,-0.39,1014.093,-0.054221,-0.051523,0.000701,49.261536,-123.256378,81.20,1,5,0.510,0.001,0.000,-0.860
-0.62,-0.07,-0.39,1014.093,-0.059563,-0.042672,-0.000261,49.261536,-123.256378,81.20,1,5,0.510,0.001,0.000,-0.860
-0.62,-0.07,-0.42,1014.096,-0.058125,-0.042558,0.004163,49.261536,-123.256378,81.20,1,5,0.510,0.001,0.000,-0.860
-0.61,-0.07,-0.42,1014.096,-0.064448,-0.041850,0.004424,49.261536,-123.256378,81.20,1,5,0.510,0.001,0.000,-0.860
-0.61,-0.06,-0.45,1014.100,-0.058771,-0.047731,0.001271,49.261536,-123.256378,81.20,1,5,0.510,0.001,0.000,-0.860
-0.61,-0.06,-0.45,1014.100,-0.054005,-0.048364,-0.005299,49.261536,-123.256378,81.20,1,5,0.510,0.001,0.000,-0.860
-0.61,-0.06,-0.45,1014.100,-0.054313,-0.045173,0.000826,49.261536,-123.256378,81.20,1,5,0.510,0.000,0.000,-0.860
-0.61,-0.06,-0.45,1014.100,-0.058458,-0.037721,-0.005502,49.261536,-123.256378,81.20,1,5,0.510,0.000,0.000,-0.860
-0.61,-0.06,-0.41,1014.095,-0.063231,-0.040758,-0.013309,49.261536,-123.256378,81.20,1,5,0.509,0.000,0.000,-0.860
-0.61,-0.07,-0.41,1014.095,-0.065344,-0.041670,-0.007945,49.261536,-123.256378,81.20,1,5,0.510,0.000,0.000,-0.860
-0.60,-0.06,-0.42,1014.096,-0.059442,-0.043903,-0.001109,49.261536,-123.256378,81.20,1,5,0.509,0.000,-0.000,-0.861
-0.60,-0.06,-0.42,1014.096,-0.056381,-0.038645,-0.004535,49.261536,-123.256378,81.20,1,5,0.509,0.000,-0.000,-0.861
-0.60,-0.06,-0.45,1014.100,-0.056296,-0.038777,0.007169,49.261536,-123.256378,81.20,1,5,0.509,0.001,-0.000,-0.861
-0.60,-0.06,-0.45,1014.100,-0.055234,-0.044783,0.006438,49.261536,-123.256378,81.20,1,5,0.509,0.001,-0.000,-0.861
-0.60,-0.06,-0.53,1014.110,-0.071070,-0.044813,0.005705,49.261536,-123.256378,81.20,1,5,0.509,0.000,-0.001,-0.861
-0.60,-0.06,-0.53,1014.110,-0.065755,-0.049691,0.003289,49.261536,-123.256378,81.20,1,5,0.509,0.000,-0.001,-0.861
-0.60,-0.06,-0.52,1014.108,-0.062321,-0.044774,0.002570,49.261536,-123.256378,81.20,1,5,0.509,0.000,-0.001,-0.861
-0.60,-0.06,-0.52,1014.108,-0.060181,-0.046303,0.002108,49.261536,-123.256378,81.20,1,5,0.509,0.000,-0.001,-0.861
-0.60,-0.05,-0.56,1014.113,-0.049323,-0.051972,0.008501,49.261536,-123.256378,81.20,1,5,0.508,0.000,-0.001,-0.861
-0.60,-0.05,-0.56,1014.113,-0.055871,-0.050362,0.003616,49.261536,-123.256378,81.20,1,5,0.508,-0.000,-0.001,-0.861
-0.60,-0.05,-0.53,1014.110,-0.056437,-0.032815,-0.004202,49.261536,-123.256378,81.20,1,5,0.508,-0.000,-0.001,-0.861
-0.60,-0.05,-0.53,1014.110,-0.060592,-0.038816,-0.003183,49.261536,-123.256378,81.20,1,5,0.508,-0.001,-0.000,-0.861
-0.60,-0.05,-0.49,1014.105,-0.055961,-0.044137,0.005401,49.261536,-123.256378,81.20,1,5,0.508,-0.001,-0.001,-0.861
-0.60,-0.05,-0.49,1014.105,-0.058351,-0.036252,0.013727,49.261536,-123.256378,81.20,1,5,0.508,-0.001,-0.000,-0.861
-0.60,-0.05,-0.46,1014.102,-0.062207,-0.047914,0.008653,49.261536,-123.256378,81.20,1,5,0.508,-0.001,-0.000,-0.862
-0.60,-0.05,-0.46,1014.102,-0.056256,-0.045850,0.004036,49.261536,-123.256378,81.20,1,5,0.508,-0.001,-0.000,-0.862
-0.60,-0.04,-0.53,1014.110,-0.068467,-0.050383,0.002191,49.261536,-123.256378,81.20,1,5,0.507,-0.002,0.000,-0.862
-0.60,-0.05,-0.53,1014.110,-0.067020,-0.052108,-0.008249,49.261536,-123.256378,81.20,1,5,0.508,-0.002,0.000,-0.862
-0.60,-0.05,-0.45,1014.100,-0.060097,-0.050093,-0.005050,49.261536,-123.256378,81.20,1,5,0.508,-0.003,0.000,-0.861
-0.59,-0.05,-0.45,1014.100,-0.062791,-0.049372,-0.012320,49.261536,-123.256378,81.20,1,5,0.508,-0.003,0.000,-0.861
-0.59,-0.05,-0.46,1014.102,-0.059839,-0.055612,-0.010822,49.261536,-123.256378,81.20,1,5,0.508,-0.003,0.000,-0.861
-0.59,-0.05,-0.46,1014.102,-0.065654,-0.057261,-0.011501,49.261536,-123.256378,81.20,1,5,0.509,-0.003,0.000,-0.861
-0.59,-0.05,-0.39,1014.093,-0.071247,-0.047490,-0.006137,49.261536,-123.256378,81.20,1,5,0.509,-0.003,0.001,-0.861
-0.59,-0.05,-0.39,1014.093,-0.062362,-0.033129,-0.002335,49.261536,-123.256378,81.20,1,5,0.509,-0.003,0.001,-0.861
-0.59,-0.05,-0.39,1014.093,-0.059354,-0.035035,-0.006265,49.261536,-123.256386,81.20,1,5,0.509,-0.003,0.000,-0.861
-0.59,-0.05,-0.39,1014.093,-0.064514,-0.040698,-0.006239,49.261536,-123.256386,81.20,1,5,0.509,-0.003,0.000,-0.860
-0.58,-0.05,-0.35,1014.088,-0.061253,-0.038039,0.008373,49.261536,-123.256386,81.20,1,5,0.510,-0.003,-0.000,-0.860
-0.58,-0.04,-0.35,1014.088,-0.060710,-0.038197,0.002482,49.261536,-123.256386,81.20,1,5,0.510,-0.002,-0.001,-0.860
-0.58,-0.04,-0.34,1014.087,-0.055319,-0.033141,-0.001988,49.261536,-123.256386,81.20,1,5,0.510,-0.002,-0.001,-0.860
-0.58,-0.04,-0.34,1014.087,-0.043272,-0.038392,-0.004217,49.261536,-123.256386,81.20,1,5,0.510,-0.002,-0.001,-0.860
-0.57,-0.04,-0.43,1014.097,-0.045265,-0.033754,0.012146,49.261536,-123.256386,81.20,1,5,0.510,-0.002,-0.001,-0.860
-0.57,-0.04,-0.43,1014.097,-0.045658,-0.042628,0.000494,49.261536,-123.256386,81.20,1,5,0.510,-0.002,-0.001,-0.860
-0.57,-0.04,-0.47,1014.102,-0.062327,-0.043195,-0.023338,49.261536,-123.256386,81.20,1,5,0.510,-0.003,-0.001,-0.860
-0.57,-0.05,-0.47,1014.102,-0.083975,-0.045916,-0.032003,49.261536,-123.256386,81.20,1,5,0.509,-0.003,-0.000,-0.861
-0.57,-0.05,-0.43,1014.097,-0.083288,-0.033547,-0.041555,49.261536,-123.256386,81.20,1,5,0.509,-0.003,-0.000,-0.861
-0.57,-0.06,-0.43,1014.097,-0.091222,-0.045573,-0.029041,49.261536,-123.256386,81.20,1,5,0.509,-0.003,-0.000,-0.861
-0.57,-0.06,-0.39,1014.092,-0.105132,-0.051751,-0.019302,49.261536,-123.256386,81.20,1,5,0.509,-0.002,-0.001,-0.861
-0.57,-0.06,-0.39,1014.092,-0.090400,-0.053945,0.006613,49.261536,-123.256386,81.20,1,5,0.509,-0.002,-0.001,-0.861
-0.56,-0.05,-0.37,1014.091,-0.078568,-0.056130,0.023288,49.261536,-123.256386,81.20,1,5,0.509,-0.001,-0.002,-0.861
-0.56,-0.04,-0.37,1014.091,-0.054995,-0.053906,0.033709,49.261536,-123.256386,81.20,1,5,0.509,-0.000,-0.002,-0.861
-0.56,-0.04,-0.32,1014.084,-0.054143,-0.046324,0.030216,49.261536,-123.256386,81.20,1,5,0.509,0.000,-0.003,-0.861
-0.56,-0.03,-0.32,1014.084,-0.043511,-0.034996,0.028976,49.261536,-123.256386,81.20,1,5,0.509,0.001,-0.003,-0.860
-0.55,-0.03,-0.39,1014.093,-0.040402,-0.031967,0.033885,49.261536,-123.256386,81.20,1,5,0.510,0.001,-0.004,-0.860
-0.55,-0.02,-0.39,1014.093,-0.033388,-0.038710,0.035713,49.261536,-123.256386,81.20,1,5,0.510,0.000,-0.004,-0.860
-0.55,-0.01,-0.39,1014.093,-0.033491,-0.038120,0.030390,49.261536,-123.256386,81.20,1,5,0.510,-0.000,-0.004,-0.860
-0.55,-0.01,-0.39,1014.093,-0.049863,-0.040053,0.012375,49.261536,-123.256386,81.20,1,5,0.510,-0.001,-0.004,-0.860
-0.55,-0.01,-0.44,1014.099,-0.059644,-0.043492,0.002011,49.261536,-123.256386,81.20,1,5,0.510,-0.002,-0.004,-0.860
-0.55,-0.01,-0.44,1014.099,-0.061511,-0.055159,-0.000922,49.261536,-123.256386,81.20,1,5,0.510,-0.003,-0.004,-0.860
-0.54,-0.01,-0.44,1014.099,-0.060154,-0.049909,-0.014781,49.261536,-123.256386,81.20,1,5,0.511,-0.003,-0.004,-0.860
-0.54,-0.01,-0.44,1014.099,-0.061674,-0.042584,-0.020386,49.261536,-123.256386,81.20,1,5,0.511,-0.004,-0.004,-0.860
-0.54,-0.02,-0.30,1014.082,-0.071202,-0.039996,-0.034226,49.261536,-123.256386,81.20,1,5,0.511,-0.004,-0.003,-0.859
-0.54,-0.02,-0.30,1014.082,-0.072796,-0.044176,-0.021437,49.261536,-123.256386,81.20,1,5,0.512,-0.005,-0.004,-0.859
-0.54,-0.02,-0.39,1014.093,-0.073268,-0.043895,-0.017515,49.261536,-123.256386,81.20,1,5,0.512,-0.005,-0.004,-0.859
-0.53,-0.02,-0.39,1014.093,-0.064842,-0.044542,-0.008763,49.261536,-123.256386,81.20,1,5,0.512,-0.005,-0.004,-0.859
-0.53,-0.02,-0.36,1014.089,-0.056483,-0.040906,0.001390,49.261536,-123.256386,81.20,1,5,0.513,-0.004,-0.004,-0.858
-0.53,-0.02,-0.36,1014.089,-0.060583,-0.050420,0.004168,49.261536,-123.256386,81.20,1,5,0.513,-0.004,-0.004,-0.858
-0.53,-0.02,-0.46,1014.101,-0.051736,-0.048299,0.002139,49.261536,-123.256386,81.20,1,5,0.514,-0.004,-0.004,-0.858
-0.53,-0.02,-0.46,1014.101,-0.058483,-0.047160,-0.006162,49.261536,-123.256386,81.20,1,5,0.514,-0.004,-0.004,-0.858
-0.53,-0.02,-0.44,1014.099,-0.062913,-0.052074,-0.004147,49.261536,-123.256386,81.20,1,5,0.515,-0.004,-0.004,-0.857
-0.53,-0.02,-0.44,1014.099,-0.066640,-0.046690,-0.005426,49.261536,-123.256386,81.20,1,5,0.515,-0.004,-0.004,-0.857
-0.53,-0.02,-0.47,1014.102,-0.058970,-0.049684,-0.002264,49.261536,-123.256386,81.20,1,5,0.516,-0.004,-0.004,-0.857
-0.53,-0.02,-0.47,1014.102,-0.056847,-0.046814,0.006223,49.261536,-123.256386,81.20,1,5,0.516,-0.004,-0.003,-0.856
-0.53,-0.02,-0.51,1014.107,-0.055822,-0.037529,0.010021,49.261536,-123.256386,81.20,1,5,0.517,-0.004,-0.003,-0.856
-0.53,-0.02,-0.51,1014.107,-0.049052,-0.032095,0.007020,49.261536,-123.256386,81.20,1,5,0.517,-0.004,-0.002,-0.856
-0.53,-0.02,-0.51,1014.107,-0.056064,-0.034295,-0.005870,49.261536,-123.256386,81.20,1,5,0.517,-0.004,-0.002,-0.856
-0.53,-0.02,-0.51,1014.107,-0.059895,-0.026340,-0.015181,49.261536,-123.256386,81.20,1,5,0.517,-0.004,-0.002,-0.856
-0.53,-0.04,-0.45,1014.100,-0.127247,-0.061923,-0.137905,49.261536,-123.256386,81.20,1,5,0.518,-0.003,-0.003,-0.855
-0.53,-0.04,-0.45,1014.100,-0.059542,-0.062711,0.027114,49.261536,-123.256386,81.20,1,5,0.519,-0.002,-0.004,-0.855
-0.52,-0.03,-0.40,1014.094,-0.044811,-0.084417,0.018628,49.261536,-123.256386,81.20,1,5,0.520,-0.001,-0.004,-0.854
-0.52,-0.03,-0.40,1014.094,-0.060878,-0.087600,0.009144,49.261536,-123.256386,81.20,1,5,0.520,-0.001,-0.004,-0.854
-0.52,-0.03,-0.52,1014.109,-0.078974,-0.075553,0.006607,49.261536,-123.256386,81.20,1,5,0.521,0.000,-0.003,-0.854
-0.52,-0.03,-0.52,1014.109,-0.076712,-0.067914,0.001325,49.261536,-123.256386,81.20,1,5,0.522,0.001,-0.003,-0.853
-0.52,-0.03,-0.50,1014.105,-0.092558,-0.078408,-0.002724,49.261536,-123.256386,81.20,1,5,0.523,0.001,-0.002,-0.852
-0.52,-0.02,-0.50,1014.105,-0.078623,-0.078167,0.026268,49.261536,-123.256386,81.20,1,5,0.525,0.002,-0.002,-0.851
-0.53,-0.02,-0.58,1014.115,-0.068805,-0.073874,0.045965,49.261536,-123.256386,81.20,1,5,0.527,0.002,-0.002,-0.850
-0.53,-0.01,-0.58,1014.115,-0.042787,-0.064555,0.047697,49.261536,-123.256386,81.20,1,5,0.529,0.003,-0.001,-0.849
-0.53,-0.00,-0.54,1014.111,-0.048997,-0.065588,0.036790,49.261536,-123.256386,81.20,1,5,0.530,0.003,0.000,-0.848
-0.53,0.00,-0.54,1014.111,-0.050202,-0.072471,0.033504,49.261536,-123.256386,81.20,1,5,0.532,0.003,0.001,-0.847
-0.53,0.01,-0.48,1014.104,-0.061056,-0.081486,0.012887,49.261536,-123.256386,81.20,1,5,0.533,0.003,0.003,-0.846
-0.53,0.00,-0.48,1014.104,-0.065639,-0.091750,-0.013771,49.261536,-123.256386,81.20,1,5,0.535,0.002,0.004,-0.845
-0.52,-0.00,-0.51,1014.107,-0.058997,-0.103157,-0.018733,49.261536,-123.256386,81.20,1,5,0.537,0.002,0.004,-0.843
-0.52,-0.00,-0.51,1014.107,-0.045674,-0.099191,-0.012650,49.261536,-123.256386,81.20,1,5,0.540,0.002,0.005,-0.842
-0.52,-0.00,-0.43,1014.097,-0.030831,-0.107790,-0.015559,49.261536,-123.256386,81.20,1,5,0.542,0.001,0.006,-0.840
-0.52,-0.01,-0.43,1014.097,-0.027627,-0.107719,-0.026670,49.261536,-123.256386,81.20,1,5,0.545,0.002,0.007,-0.839
-0.52,-0.01,-0.44,1014.099,-0.017432,-0.119312,-0.024798,49.261536,-123.256386,81.20,1,5,0.547,0.002,0.008,-0.837
-0.52,-0.01,-0.44,1014.099,-0.011334,-0.123885,-0.016935,49.261536,-123.256386,81.20,1,5,0.550,0.002,0.008,-0.835
-0.52,-0.02,-0.30,1014.082,-0.011351,-0.127607,-0.022462,49.261536,-123.256386,81.20,1,5,0.554,0.002,0.009,-0.833
-0.51,-0.02,-0.30,1014.082,-0.016653,-0.116522,-0.038671,49.261536,-123.256386,81.20,1,5,0.558,0.002,0.009,-0.830
-0.51,-0.03,-0.11,1014.059,-0.005464,-0.113030,-0.042437,49.261536,-123.256386,81.20,1,5,0.562,0.002,0.010,-0.827
-0.50,-0.03,-0.11,1014.059,0.010657,-0.110326,-0.028939,49.261536,-123.256386,81.20,1,5,0.566,0.002,0.010,-0.825
-0.50,-0.03,-0.12,1014.061,0.006112,-0.105426,-0.035261,49.261536,-123.256386,81.20,1,5,0.570,0.003,0.011,-0.822
-0.49,-0.04,-0.12,1014.061,0.000068,-0.113106,-0.035458,49.261536,-123.256386,81.20,1,5,0.574,0.003,0.011,-0.819
-0.49,-0.04,-0.10,1014.057,0.013606,-0.115639,-0.012656,49.261536,-123.256386,81.20,1,5,0.578,0.004,0.011,-0.816
-0.48,-0.03,-0.10,1014.057,0.021261,-0.134292,0.011336,49.261536,-123.256386,81.20,1,5,0.582,0.004,0.010,-0.813
-0.48,-0.03,-0.19,1014.069,0.013163,-0.134512,0.002998,49.261536,-123.256386,81.20,1,5,0.587,0.004,0.010,-0.809
-0.48,-0.03,-0.19,1014.069,0.001423,-0.121467,-0.007015,49.261536,-123.256386,81.20,1,5,0.592,0.005,0.011,-0.806
-0.47,-0.03,-0.03,1014.049,-0.011728,-0.122093,-0.030465,49.261536,-123.256386,81.20,1,5,0.596,0.005,0.011,-0.803
-0.47,-0.04,-0.03,1014.049,-0.014632,-0.121968,-0.024544,49.261536,-123.256386,81.20,1,5,0.601,0.006,0.010,-0.799
-0.46,-0.03,-0.07,1014.054,0.001064,-0.138182,0.035483,49.261536,-123.256386,81.20,1,5,0.606,0.006,0.009,-0.796
-0.46,-0.01,-0.07,1014.054,0.018779,-0.147651,0.064441,49.261536,-123.256386,81.20,1,5,0.610,0.007,0.008,-0.792
-0.45,0.00,-0.14,1014.062,0.024822,-0.150165,0.071524,49.261536,-123.256386,81.20,1,5,0.615,0.008,0.007,-0.789
-0.45,0.02,-0.14,1014.062,0.033706,-0.136978,0.084044,49.261536,-123.256386,81.20,1,5,0.620,0.008,0.007,-0.785
-0.44,0.03,-0.08,1014.056,0.025407,-0.137646,0.081711,49.261536,-123.256386,81.20,1,5,0.624,0.008,0.008,-0.781
-0.44,0.04,-0.08,1014.056,0.007496,-0.119581,0.047298,49.261536,-123.256386,81.20,1,5,0.629,0.007,0.009,-0.777
-0.43,0.04,-0.12,1014.061,-0.010214,-0.104520,-0.005556,49.261536,-123.256386,81.20,1,5,0.634,0.006,0.010,-0.773
-0.43,0.04,-0.12,1014.061,-0.034273,-0.091064,-0.029879,49.261536,-123.256386,81.20,1,5,0.638,0.004,0.011,-0.770
-0.42,0.04,-0.23,1014.074,-0.050035,-0.107537,-0.032027,49.261536,-123.256386,81.20,1,5,0.643,0.003,0.011,-0.766
-0.42,0.03,-0.23,1014.074,-0.032911,-0.127385,-0.024054,49.261536,-123.256386,81.20,1,5,0.647,0.001,0.011,-0.762
-0.42,0.03,-0.20,1014.079,-0.019445,-0.112984,-0.014030,49.261536,-123.256386,81.20,1,5,0.651,0.000,0.012,-0.759
-0.41,0.03,-0.20,1014.070,-0.007669,-0.105746,0.006298,49.261536,-123.256386,81.20,1,5,0.656,-0.001,0.012,-0.755
-0.41,0.04,-0.19,1014.070,-0.013341,-0.093913,-0.005239,49.261536,-123.256386,81.20,1,5,0.660,-0.002,0.013,-0.751
-0.40,0.03,-0.19,1014.069,-0.013911,-0.077153,-0.024568,49.261536,-123.256386,81.20,1,5,0.663,-0.003,0.014,-0.748
-0.40,0.03,-0.19,1014.069,-0.011113,-0.071305,-0.024584,49.261536,-123.256386,81.20,1,5,0.667,-0.005,0.014,-0.745
-0.40,0.03,-0.25,1014.076,-0.016668,-0.074309,-0.026650,49.261536,-123.256386,81.20,1,5,0.670,-0.006,0.013,-0.742
-0.40,0.03,-0.25,1014.076,-0.011837,-0.090878,-0.006063,49.261536,-123.256386,81.20,1,5,0.673,-0.008,0.012,-0.740
-0.39,0.03,-0.21,1014.071,-0.004987,-0.100523,0.018069,49.261536,-123.256386,81.20,1,5,0.675,-0.010,0.011,-0.738
-0.39,0.03,-0.21,1014.071,-0.006193,-0.098966,0.008582,49.261536,-123.256386,81.20,1,5,0.677,-0.012,0.010,-0.736
-0.39,0.03,-0.15,1014.064,-0.031570,-0.088482,-0.009299,49.261536,-123.256386,81.20,1,5,0.679,-0.015,0.010,-0.734
-0.38,0.03,-0.15,1014.064,-0.062961,-0.085016,-0.021138,49.261536,-123.256386,81.20,1,5,0.682,-0.018,0.008,-0.731
-0.38,0.03,-0.10,1014.057,-0.044723,-0.088332,-0.014215,49.261536,-123.256386,81.20,1,5,0.684,-0.020,0.006,-0.729
-0.37,0.04,-0.10,1014.057,-0.012482,-0.097577,0.033565,49.261536,-123.256386,81.20,1,5,0.687,-0.021,0.003,-0.727
-0.37,0.05,-0.07,1014.054,0.017145,-0.075336,0.054541,49.261536,-123.256386,81.20,1,5,0.690,-0.022,0.001,-0.723
-0.36,0.06,-0.07,1014.054,0.026578,0.000442,0.049373,49.261536,-123.256386,81.20,1,5,0.694,-0.022,0.001,-0.720
-0.36,0.06,-0.19,1014.069,-0.002733,0.062435,-0.005164,49.261536,-123.256386,81.20,1,5,0.697,-0.022,0.002,-0.717
-0.36,0.05,-0.19,1014.069,-0.069044,0.079649,-0.056979,49.261536,-123.256386,81.20,1,5,0.698,-0.022,0.003,-0.715
-0.35,0.04,-0.17,1014.066,-0.117973,0.063440,-0.069480,49.261536,-123.256386,81.20,1,5,0.699,-0.022,0.002,-0.715
-0.35,0.04,-0.17,1014.066,-0.137833,0.009475,-0.016586,49.261536,-123.256386,81.20,1,5,0.700,-0.022,-0.001,-0.714
-0.35,0.04,-0.21,1014.071,-0.111054,-0.028799,0.034921,49.261536,-123.256386,81.20,1,5,0.701,-0.022,-0.005,-0.713
-0.34,0.07,-0.21,1014.071,-0.064434,-0.045281,0.124689,49.261536,-123.256386,81.20,1,5,0.702,-0.021,-0.009,-0.711
-0.34,0.09,-0.32,1014.084,-0.039909,-0.059414,0.170240,49.261536,-123.256386,81.20,1,5,0.704,-0.021,-0.012,-0.710
-0.34,0.11,-0.32,1014.084,-0.068776,-0.063382,0.118037,49.261536,-123.256386,81.20,1,5,0.706,-0.022,-0.012,-0.708
-0.34,0.12,-0.30,1014.082,-0.116770,-0.058476,0.032270,49.261536,-123.256386,81.20,1,5,0.708,-0.023,-0.012,-0.705
-0.33,0.12,-0.30,1014.082,-0.123315,-0.050840,-0.013842,49.261536,-123.256386,81.20,1,5,0.711,-0.025,-0.013,-0.702
-0.33,0.12,-0.39,1014.092,-0.109616,-0.065587,-0.013872,49.261536,-123.256386,81.20,1,5,0.715,-0.027,-0.015,-0.698
-0.33,0.11,-0.39,1014.092,-0.083410,-0.067794,-0.007604,49.261536,-123.256386,81.20,1,5,0.719,-0.029,-0.016,-0.694
-0.33,0.11,-0.40,1014.094,-0.079087,-0.066142,-0.012038,49.261536,-123.256386,81.20,1,5,0.723,-0.029,-0.015,-0.690
-0.33,0.11,-0.40,1014.094,-0.074727,-0.043825,-0.023255,49.261536,-123.256386,81.20,1,5,0.728,-0.029,-0.014,-0.685
-0.33,0.10,-0.37,1014.091,-0.073569,-0.025193,-0.026341,49.261536,-123.256386,81.20,1,5,0.732,-0.028,-0.012,-0.681
-0.33,0.09,-0.37,1014.091,-0.090207,-0.011580,-0.043456,49.261536,-123.256386,81.20,1,5,0.736,-0.027,-0.010,-0.676
-0.33,0.08,-0.36,1014.089,-0.106101,-0.002042,-0.065456,49.261536,-123.256386,81.20,1,5,0.740,-0.027,-0.008,-0.672
-0.33,0.07,-0.36,1014.089,-0.117770,-0.002773,-0.086160,49.261536,-123.256386,81.20,1,5,0.744,-0.028,-0.007,-0.667
-0.32,0.05,-0.29,1014.081,-0.112982,-0.033681,-0.084476,49.261536,-123.256386,81.20,1,5,0.748,-0.029,-0.007,-0.663
-0.32,0.04,-0.29,1014.081,-0.099180,-0.058888,-0.065255,49.261536,-123.256386,81.20,1,5,0.751,-0.029,-0.007,-0.659
-0.32,0.03,-0.33,1014.086,-0.092112,-0.082964,-0.056422,49.261536,-123.256386,81.20,1,5,0.755,-0.030,-0.007,-0.655
-0.32,0.03,-0.33,1014.086,-0.091618,-0.095060,-0.041415,49.261536,-123.256386,81.20,1,5,0.759,-0.030,-0.006,-0.650
-0.32,0.02,-0.33,1014.086,-0.077382,-0.096973,-0.044854,49.261536,-123.256386,81.20,1,5,0.763,-0.030,-0.005,-0.645
-0.32,0.01,-0.33,1014.086,-0.060500,-0.085514,-0.051907,49.261536,-123.256386,81.20,1,5,0.768,-0.030,-0.004,-0.640
-0.32,-0.00,-0.30,1014.082,-0.067404,-0.062811,-0.059772,49.261536,-123.256386,81.20,1,5,0.773,-0.030,-0.002,-0.634
-0.32,-0.01,-0.30,1014.082,-0.075430,-0.054153,-0.070764,49.261536,-123.256386,81.20,1,5,0.777,-0.030,-0.001,-0.629
-0.32,-0.03,-0.26,1014.077,-0.093070,-0.056864,-0.095491,49.261536,-123.256386,81.20,1,5,0.781,-0.029,0.001,-0.624
-0.32,-0.05,-0.26,1014.077,-0.096334,-0.063794,-0.098656,49.261536,-123.256386,81.20,1,5,0.785,-0.028,0.002,-0.619
-0.32,-0.06,-0.26,1014.077,-0.084697,-0.087449,-0.088088,49.261536,-123.256386,81.20,1,5,0.789,-0.028,0.003,-0.614
-0.32,-0.07,-0.26,1014.077,-0.065638,-0.102537,-0.073040,49.261536,-123.256386,81.20,1,5,0.793,-0.027,0.002,-0.608
-0.32,-0.08,-0.32,1014.084,-0.070282,-0.111719,-0.063053,49.261536,-123.256386,81.20,1,5,0.798,-0.026,0.002,-0.602
-0.32,-0.09,-0.32,1014.084,-0.061262,-0.102804,-0.052024,49.261536,-123.256378,81.20,1,5,0.802,-0.024,0.001,-0.597
-0.33,-0.10,-0.36,1014.089,-0.047299,-0.076919,-0.034014,49.261536,-123.256378,81.20,1,5,0.807,-0.022,0.000,-0.591
-0.33,-0.10,-0.36,1014.089,-0.050428,-0.055889,-0.002334,49.261536,-123.256378,81.20,1,5,0.811,-0.019,-0.000,-0.585
-0.33,-0.09,-0.39,1014.092,-0.048004,-0.062419,0.035325,49.261536,-123.256378,81.20,1,5,0.815,-0.017,-0.001,-0.579
-0.33,-0.09,-0.39,1014.092,-0.056137,-0.071211,0.046684,49.261536,-123.256378,81.20,1,5,0.819,-0.015,-0.002,-0.574
-0.34,-0.08,-0.47,1014.102,-0.064964,-0.081571,0.057153,49.261536,-123.256378,81.20,1,5,0.822,-0.013,-0.003,-0.569
-0.34,-0.07,-0.47,1014.102,-0.069284,-0.074621,0.054526,49.261536,-123.256378,81.20,1,5,0.826,-0.012,-0.005,-0.563
-0.34,-0.06,-0.48,1014.104,-0.060133,-0.064586,0.062615,49.261536,-123.256378,81.20,1,5,0.830,-0.011,-0.008,-0.557
-0.35,-0.05,-0.48,1014.104,-0.056056,-0.058437,0.077311,49.261536,-123.256378,81.20,1,5,0.834,-0.011,-0.011,-0.552
-0.35,-0.04,-0.51,1014.107,-0.063618,-0.061576,0.062698,49.261536,-123.256378,81.20,1,5,0.837,-0.011,-0.013,-0.547
-0.35,-0.03,-0.51,1014.107,-0.066220,-0.047286,0.058987,49.261536,-123.256378,81.20,1,5,0.840,-0.011,-0.016,-0.542
-0.35,-0.02,-0.58,1014.115,-0.073777,-0.045531,0.057594,49.261536,-123.256378,81.20,1,5,0.843,-0.011,-0.018,-0.538
-0.36,-0.01,-0.58,1014.115,-0.080359,-0.054506,0.041997,49.261536,-123.256378,81.20,1,5,0.846,-0.011,-0.021,-0.533
-0.36,-0.00,-0.52,1014.109,-0.065119,-0.061081,0.048239,49.261536,-123.256378,81.20,1,5,0.848,-0.011,-0.025,-0.529
-0.36,0.00,-0.52,1014.109,-0.051362,-0.038852,0.033020,49.261536,-123.256378,81.20,1,5,0.851,-0.012,-0.029,-0.524
-0.37,0.00,-0.55,1014.112,-0.035614,-0.027048,0.007765,49.261536,-123.256378,81.20,1,5,0.854,-0.012,-0.033,-0.519
-0.37,0.00,-0.55,1014.112,-0.038907,-0.035446,0.024078,49.261536,-123.256378,81.20,1,5,0.856,-0.012,-0.038,-0.515
-0.37,0.00,-0.44,1014.099,-0.058831,-0.056465,0.003815,49.261536,-123.256378,81.20,1,5,0.858,-0.013,-0.043,-0.511
-0.37,0.00,-0.44,1014.099,-0.065053,-0.044552,-0.009198,49.261536,-123.256378,81.20,1,5,0.861,-0.012,-0.047,-0.507
-0.37,0.00,-0.39,1014.092,-0.065354,-0.023824,-0.006258,49.261536,-123.256378,81.20,1,5,0.863,-0.011,-0.051,-0.502
-0.37,0.01,-0.39,1014.092,-0.060334,0.015847,0.029518,49.261536,-123.256378,81.20,1,5,0.866,-0.008,-0.055,-0.497
-0.37,0.02,-0.35,1014.088,-0.053610,0.075010,0.099583,49.261536,-123.256378,81.20,1,5,0.869,-0.005,-0.057,-0.491
-0.37,0.04,-0.35,1014.088,-0.061233,0.130604,0.119976,49.261536,-123.256378,81.20,1,5,0.871,-0.003,-0.058,-0.487
-0.37,0.05,-0.39,1014.093,-0.088614,0.138121,0.052269,49.261536,-123.256378,81.20,1,5,0.873,-0.002,-0.059,-0.485
-0.37,0.05,-0.39,1014.093,-0.093685,0.078410,0.008902,49.261536,-123.256378,81.20,1,5,0.873,-0.002,-0.060,-0.483
-0.37,0.06,-0.43,1014.097,-0.068116,0.018582,0.036062,49.261536,-123.256378,81.20,1,5,0.874,-0.002,-0.064,-0.481
-0.37,0.07,-0.43,1014.097,-0.020552,-0.018982,0.085095,49.261539,-123.256378,81.20,1,5,0.876,-0.002,-0.067,-0.478
-0.37,0.10,-0.42,1014.096,0.009609,-0.024919,0.129759,49.261539,-123.256378,81.20,1,5,0.878,-0.002,-0.069,-0.473
-0.37,0.12,-0.42,1014.096,0.026452,-0.016060,0.131144,49.261539,-123.256378,81.20,1,5,0.881,-0.003,-0.069,-0.469
-0.36,0.13,-0.42,1014.096,0.008117,-0.031050,0.059752,49.261539,-123.256378,81.20,1,5,0.883,-0.004,-0.067,-0.464
-0.36,0.12,-0.42,1014.096,-0.042305,-0.062002,-0.016473,49.261539,-123.256378,81.20,1,5,0.886,-0.005,-0.064,-0.459
-0.36,0.12,-0.36,1014.090,-0.059021,-0.073834,-0.039793,49.261539,-123.256378,81.20,1,5,0.889,-0.007,-0.061,-0.454
-0.36,0.11,-0.36,1014.090,-0.046645,-0.054556,-0.034208,49.261539,-123.256378,81.20,1,5,0.892,-0.008,-0.059,-0.448
-0.36,0.11,-0.32,1014.085,-0.051138,-0.031614,-0.040488,49.261539,-123.256378,81.20,1,5,0.895,-0.010,-0.057,-0.443
-0.35,0.10,-0.32,1014.085,-0.056384,-0.029345,-0.041340,49.261539,-123.256378,81.20,1,5,0.897,-0.011,-0.056,-0.437
-0.35,0.09,-0.31,1014.083,-0.053048,-0.024178,-0.032962,49.261539,-123.256378,81.20,1,5,0.900,-0.013,-0.055,-0.433
-0.35,0.10,-0.31,1014.083,-0.025758,0.001986,0.010595,49.261539,-123.256378,81.20,1,5,0.902,-0.014,-0.055,-0.428
-0.35,0.10,-0.34,1014.087,-0.027513,-0.005502,0.019773,49.261539,-123.256378,81.20,1,5,0.904,-0.016,-0.053,-0.425
-0.35,0.10,-0.34,1014.087,-0.022333,-0.009839,-0.007550,49.261539,-123.256378,81.20,1,5,0.905,-0.018,-0.052,-0.422
-0.35,0.09,-0.41,1014.095,-0.031325,-0.007134,-0.025659,49.261539,-123.256378,81.20,1,5,0.906,-0.020,-0.051,-0.419
-0.34,0.08,-0.41,1014.095,-0.037074,0.008684,-0.045936,49.261539,-123.256378,81.20,1,5,0.908,-0.021,-0.050,-0.416
-0.34,0.07,-0.42,1014.096,-0.046273,0.011947,-0.065423,49.261539,-123.256378,81.20,1,5,0.909,-0.023,-0.049,-0.413
-0.34,0.06,-0.42,1014.096,-0.057139,0.014003,-0.044880,49.261539,-123.256378,81.20,1,5,0.910,-0.024,-0.050,-0.412
-0.34,0.06,-0.39,1014.093,-0.051176,0.026253,-0.000643,49.261539,-123.256378,81.20,1,5,0.910,-0.025,-0.050,-0.411
-0.34,0.07,-0.39,1014.093,-0.043320,0.026544,0.010677,49.261539,-123.256378,81.20,1,5,0.910,-0.027,-0.051,-0.411
-0.34,0.06,-0.32,1014.085,-0.050752,0.012187,-0.020861,49.261539,-123.256378,81.20,1,5,0.910,-0.030,-0.051,-0.411
-0.34,0.05,-0.32,1014.085,-0.069030,-0.009884,-0.046183,49.261539,-123.256378,81.20,1,5,0.909,-0.032,-0.051,-0.413
-0.34,0.05,-0.39,1014.093,-0.067853,-0.019862,-0.038466,49.261539,-123.256378,81.20,1,5,0.908,-0.035,-0.053,-0.414
-0.34,0.05,-0.39,1014.093,-0.054374,-0.027864,-0.006498,49.261539,-123.256378,81.20,1,5,0.908,-0.037,-0.055,-0.415
-0.34,0.05,-0.30,1014.082,-0.037373,-0.021636,0.020773,49.261539,-123.256378,81.20,1,5,0.907,-0.039,-0.058,-0.415
-0.34,0.06,-0.30,1014.082,-0.040940,-0.020857,0.048026,49.261539,-123.256378,81.20,1,5,0.907,-0.041,-0.060,-0.415
-0.34,0.07,-0.26,1014.077,-0.040530,0.000556,0.069007,49.261539,-123.256378,81.20,1,5,0.907,-0.042,-0.060,-0.414
-0.33,0.08,-0.26,1014.077,-0.057743,-0.008880,0.064300,49.261539,-123.256378,81.20,1,5,0.907,-0.044,-0.060,-0.414
-0.33,0.09,-0.35,1014.088,-0.065847,-0.024087,0.037572,49.261539,-123.256378,81.20,1,5,0.907,-0.046,-0.058,-0.414
-0.33,0.09,-0.35,1014.088,-0.094135,-0.025808,0.012926,49.261539,-123.256378,81.20,1,5,0.907,-0.047,-0.057,-0.415
-0.33,0.09,-0.30,1014.082,-0.097106,-0.033153,-0.001510,49.261539,-123.256378,81.20,1,5,0.907,-0.047,-0.056,-0.415
-0.33,0.09,-0.30,1014.082,-0.096436,0.009782,0.002006,49.261539,-123.256378,81.20,1,5,0.908,-0.047,-0.056,-0.414
-0.33,0.09,-0.42,1014.096,-0.096288,0.090118,0.024811,49.261539,-123.256378,81.20,1,5,0.909,-0.045,-0.056,-0.412
-0.33,0.10,-0.42,1014.096,-0.101224,0.153650,0.023900,49.261539,-123.256378,81.20,1,5,0.909,-0.044,-0.056,-0.410
-0.33,0.10,-0.47,1014.103,-0.119031,0.188763,0.037038,49.261539,-123.256378,81.20,1,5,0.910,-0.043,-0.056,-0.409
-0.33,0.10,-0.47,1014.103,-0.161664,0.145798,0.002819,49.261539,-123.256378,81.20,1,5,0.909,-0.044,-0.055,-0.411
-0.33,0.09,-0.52,1014.108,-0.178485,0.074969,-0.077537,49.261539,-123.256378,81.20,1,5,0.907,-0.045,-0.055,-0.414
-0.33,0.07,-0.52,1014.108,-0.167044,0.023664,-0.091057,49.261539,-123.256378,81.20,1,5,0.906,-0.045,-0.056,-0.417
-0.33,0.06,-0.48,1014.103,-0.118958,-0.009056,-0.068680,49.261539,-123.256378,81.20,1,5,0.905,-0.044,-0.058,-0.420
-0.33,0.05,-0.48,1014.103,-0.076734,-0.015109,-0.026646,49.261539,-123.256378,81.20,1,5,0.904,-0.041,-0.060,-0.421
-0.33,0.06,-0.41,1014.095,-0.047774,0.023998,0.036443,49.261539,-123.256378,81.20,1,5,0.904,-0.038,-0.060,-0.421
-0.33,0.07,-0.41,1014.095,-0.063759,0.074907,0.041251,49.261539,-123.256378,81.20,1,5,0.904,-0.034,-0.059,-0.421
-0.33,0.07,-0.42,1014.096,-0.078865,0.103081,0.038773,49.261539,-123.256378,81.20,1,5,0.904,-0.031,-0.056,-0.422
-0.33,0.07,-0.42,1014.096,-0.103710,0.094929,-0.002520,49.261539,-123.256378,81.20,1,5,0.904,-0.029,-0.052,-0.423
-0.33,0.06,-0.41,1014.095,-0.147338,0.068016,-0.065127,49.261539,-123.256378,81.20,1,5,0.903,-0.028,-0.050,-0.425
-0.33,0.04,-0.41,1014.095,-0.172404,0.057712,-0.098630,49.261539,-123.256378,81.20,1,5,0.903,-0.028,-0.049,-0.427
-0.33,0.03,-0.41,1014.095,-0.158449,0.051151,-0.082005,49.261539,-123.256378,81.20,1,5,0.902,-0.028,-0.050,-0.428
-0.33,0.02,-0.41,1014.095,-0.120590,0.019241,-0.069857,49.261539,-123.256378,81.20,1,5,0.901,-0.028,-0.052,-0.430
-0.33,0.01,-0.39,1014.093,-0.084493,0.007955,-0.044231,49.261539,-123.256378,81.20,1,5,0.899,-0.029,-0.054,-0.433
-0.33,0.00,-0.39,1014.093,-0.060996,-0.018647,-0.027871,49.261539,-123.256378,81.20,1,5,0.898,-0.029,-0.054,-0.436
-0.33,-0.00,-0.37,1014.090,-0.074687,-0.039018,-0.040386,49.261539,-123.256378,81.20,1,5,0.897,-0.030,-0.054,-0.438
-0.33,-0.02,-0.37,1014.090,-0.096332,-0.031357,-0.068298,49.261539,-123.256378,81.20,1,5,0.896,-0.031,-0.054,-0.439
-0.33,-0.03,-0.30,1014.090,-0.102024,-0.032084,-0.088807,49.261539,-123.256378,81.20,1,5,0.895,-0.032,-0.054,-0.441
-0.33,-0.04,-0.30,1014.081,-0.114665,-0.040379,-0.074085,49.261539,-123.256378,81.20,1,5,0.895,-0.032,-0.054,-0.443
-0.34,-0.06,-0.35,1014.080,-0.119173,-0.061666,-0.069621,49.261539,-123.256378,81.20,1,5,0.894,-0.033,-0.054,-0.444
-0.34,-0.07,-0.35,1014.088,-0.121918,-0.071159,-0.069752,49.261539,-123.256378,81.20,1,5,0.893,-0.034,-0.056,-0.445
-0.34,-0.08,-0.35,1014.088,-0.109997,-0.046264,-0.046251,49.261539,-123.256378,81.20,1,5,0.893,-0.034,-0.057,-0.445
-0.34,-0.08,-0.37,1014.090,-0.055397,-0.030337,0.002567,49.261539,-123.256378,81.20,1,5,0.893,-0.033,-0.059,-0.445
-0.34,-0.07,-0.37,1014.090,-0.017301,-0.016383,0.057116,49.261539,-123.256378,81.20,1,5,0.893,-0.031,-0.060,-0.444
-0.34,-0.05,-0.39,1014.093,-0.016472,0.016319,0.079460,49.261539,-123.256378,81.20,1,5,0.894,-0.029,-0.060,-0.443
-0.35,-0.04,-0.39,1014.093,-0.026683,0.083559,0.069134,49.261539,-123.256378,81.20,1,5,0.895,-0.028,-0.059,-0.442
-0.35,-0.03,-0.46,1014.101,-0.044033,0.133112,0.068830,49.261539,-123.256378,81.20,1,5,0.895,-0.027,-0.058,-0.442
-0.35,-0.02,-0.46,1014.101,-0.053671,0.131761,0.057854,49.261539,-123.256378,81.20,1,5,0.894,-0.027,-0.057,-0.444
-0.35,-0.02,-0.56,1014.113,-0.045546,0.078288,0.035375,49.261539,-123.256378,81.20,1,5,0.893,-0.027,-0.059,-0.446
-0.36,-0.01,-0.56,1014.113,-0.004598,0.028209,0.057186,49.261539,-123.256378,81.20,1,5,0.891,-0.028,-0.061,-0.448
-0.36,0.01,-0.50,1014.106,0.021218,-0.018989,0.081154,49.261539,-123.256378,81.20,1,5,0.891,-0.029,-0.064,-0.449
-0.36,0.02,-0.50,1014.106,0.036148,-0.029131,0.073156,49.261539,-123.256378,81.20,1,5,0.891,-0.029,-0.066,-0.448
-0.36,0.03,-0.38,1014.091,0.054422,0.012599,0.093313,49.261539,-123.256378,81.20,1,5,0.892,-0.029,-0.067,-0.446
-0.36,0.05,-0.38,1014.091,0.074881,0.053690,0.123241,49.261539,-123.256378,81.20,1,5,0.893,-0.028,-0.067,-0.444
-0.36,0.08,-0.47,1014.103,0.065534,0.110860,0.138473,49.261539,-123.256378,81.20,1,5,0.894,-0.027,-0.065,-0.442
-0.36,0.09,-0.47,1014.103,0.038755,0.132349,0.104046,49.261539,-123.256378,81.20,1,5,0.895,-0.028,-0.063,-0.441
-0.36,0.10,-0.53,1014.110,0.004558,0.115441,0.058107,49.261539,-123.256378,81.20,1,5,0.895,-0.029,-0.060,-0.441
-0.36,0.10,-0.53,1014.110,-0.032912,0.083345,0.004735,49.261539,-123.256378,81.20,1,5,0.895,-0.031,-0.057,-0.442
-0.36,0.10,-0.47,1014.103,-0.033370,0.071402,-0.008862,49.261539,-123.256378,81.20,1,5,0.894,-0.032,-0.056,-0.443
-0.36,0.10,-0.47,1014.103,-0.013183,0.075214,-0.007442,49.261539,-123.256378,81.20,1,5,0.894,-0.032,-0.057,-0.444
-0.36,0.10,-0.49,1014.105,0.009285,0.065825,0.022151,49.261539,-123.256378,81.20,1,5,0.893,-0.031,-0.059,-0.444
-0.36,0.11,-0.49,1014.105,0.039718,0.059883,0.032488,49.261539,-123.256378,81.20,1,5,0.893,-0.030,-0.060,-0.446
-0.36,0.11,-0.42,1014.096,0.059704,0.061454,0.043266,49.261539,-123.256378,81.20,1,5,0.891,-0.028,-0.062,-0.448
-0.36,0.12,-0.42,1014.096,0.054555,0.048730,0.030330,49.261539,-123.256378,81.20,1,5,0.890,-0.027,-0.062,-0.451
-0.36,0.12,-0.48,1014.103,0.041635,0.009174,-0.012780,49.261539,-123.256378,81.20,1,5,0.888,-0.026,-0.062,-0.455
-0.36,0.11,-0.48,1014.103,0.029748,-0.028823,-0.035797,49.261539,-123.256378,81.20,1,5,0.887,-0.025,-0.063,-0.457
-0.36,0.10,-0.39,1014.093,0.004158,-0.040399,-0.063664,49.261539,-123.256378,81.20,1,5,0.886,-0.025,-0.063,-0.459
-0.36,0.08,-0.39,1014.093,-0.015910,-0.036569,-0.095538,49.261539,-123.256378,81.20,1,5,0.885,-0.024,-0.064,-0.461
-0.36,0.07,-0.45,1014.099,-0.021364,-0.006335,-0.084697,49.261539,-123.256378,81.20,1,5,0.884,-0.024,-0.065,-0.462
-0.36,0.06,-0.45,1014.099,-0.014244,0.023163,-0.053858,49.261539,-123.256378,81.20,1,5,0.884,-0.022,-0.066,-0.463
-0.36,0.05,-0.39,1014.093,0.000961,0.033088,-0.011388,49.261539,-123.256378,81.20,1,5,0.883,-0.021,-0.067,-0.464
-0.35,0.06,-0.39,1014.093,0.021713,0.021581,0.011651,49.261539,-123.256378,81.20,1,5,0.882,-0.021,-0.066,-0.466
-0.36,0.05,-0.46,1014.101,-0.008253,-0.015159,-0.038049,49.261539,-123.256378,81.20,1,5,0.881,-0.020,-0.065,-0.468
-0.36,0.04,-0.46,1014.101,-0.029418,-0.016267,-0.068301,49.261539,-123.256378,81.20,1,5,0.880,-0.020,-0.064,-0.469
-0.36,0.03,-0.47,1014.102,-0.030714,0.006673,-0.053670,49.261539,-123.256378,81.20,1,5,0.880,-0.019,-0.064,-0.471
-0.36,0.02,-0.47,1014.102,-0.014901,0.010336,-0.029204,49.261539,-123.256378,81.20,1,5,0.879,-0.019,-0.065,-0.472
-0.36,0.02,-0.47,1014.102,0.011477,0.002245,0.016553,49.261539,-123.256378,81.20,1,5,0.878,-0.018,-0.066,-0.474
-0.36,0.03,-0.47,1014.102,0.027534,-0.011361,0.040947,49.261543,-123.256355,81.20,1,5,0.877,-0.018,-0.066,-0.476
-0.36,0.03,-0.25,1014.076,0.022367,-0.015673,0.016110,49.261543,-123.256355,81.20,1,5,0.876,-0.019,-0.065,-0.478
-0.36,0.03,-0.25,1014.076,0.016081,0.001600,-0.000667,49.261543,-123.256355,81.20,1,5,0.875,-0.018,-0.064,-0.479
-0.36,0.04,-0.39,1014.092,-0.011443,0.033238,0.021724,49.261543,-123.256355,81.20,1,5,0.874,-0.017,-0.062,-0.481
-0.36,0.04,-0.39,1014.092,-0.025594,0.047266,0.012215,49.261543,-123.256355,81.20,1,5,0.873,-0.017,-0.060,-0.483
-0.36,0.04,-0.43,1014.097,-0.037427,0.039811,-0.000190,49.261543,-123.256355,81.20,1,5,0.872,-0.017,-0.059,-0.485
-0.36,0.04,-0.43,1014.097,-0.044966,0.033205,-0.010940,49.261543,-123.256355,81.20,1,5,0.871,-0.017,-0.058,-0.488
-0.36,0.04,-0.43,1014.097,-0.043790,0.027449,-0.003734,49.261543,-123.256355,81.20,1,5,0.869,-0.018,-0.057,-0.490
-0.36,0.03,-0.43,1014.097,-0.038571,0.033210,-0.012415,49.261543,-123.256355,81.20,1,5,0.868,-0.018,-0.057,-0.494
-0.36,0.03,-0.43,1014.097,-0.016013,0.017368,-0.025093,49.261543,-123.256355,81.20,1,5,0.865,-0.019,-0.057,-0.498
-0.36,0.02,-0.43,1014.097,-0.021730,-0.036412,-0.035107,49.261543,-123.256355,81.20,1,5,0.863,-0.019,-0.057,-0.502
-0.36,0.02,-0.43,1014.097,-0.017356,-0.091323,-0.036617,49.261543,-123.256355,81.20,1,5,0.860,-0.019,-0.057,-0.507
-0.36,0.01,-0.43,1014.097,-0.029421,-0.116074,-0.039478,49.261543,-123.256355,81.20,1,5,0.858,-0.019,-0.056,-0.510
-0.36,0.00,-0.42,1014.096,-0.038311,-0.082610,-0.038694,49.261543,-123.256355,81.20,1,5,0.857,-0.018,-0.055,-0.512
-0.36,-0.01,-0.42,1014.096,-0.051814,-0.033774,-0.038283,49.261543,-123.256355,81.20,1,5,0.857,-0.017,-0.054,-0.513
-0.36,-0.01,-0.53,1014.109,-0.059221,-0.017761,-0.038827,49.261543,-123.256355,81.20,1,5,0.856,-0.016,-0.053,-0.515
-0.37,-0.02,-0.53,1014.109,-0.067906,-0.027801,-0.041684,49.261543,-123.256355,81.20,1,5,0.854,-0.015,-0.052,-0.517
-0.37,-0.03,-0.51,1014.107,-0.067609,-0.033592,-0.021145,49.261543,-123.256355,81.20,1,5,0.853,-0.013,-0.052,-0.520
-0.37,-0.03,-0.51,1014.107,-0.063520,-0.034526,0.007211,49.261543,-123.256355,81.20,1,5,0.851,-0.012,-0.051,-0.522
-0.37,-0.03,-0.50,1014.106,-0.043209,-0.012494,0.006236,49.261543,-123.256355,81.20,1,5,0.850,-0.011,-0.051,-0.525
-0.38,-0.02,-0.50,1014.106,-0.021840,-0.021030,0.025066,49.261543,-123.256355,81.20,1,5,0.848,-0.010,-0.051,-0.527
-0.38,-0.02,-0.46,1014.101,-0.028044,-0.049145,0.025923,49.261543,-123.256355,81.20,1,5,0.846,-0.009,-0.050,-0.530
-0.38,-0.02,-0.46,1014.101,-0.046793,-0.066116,0.014677,49.261543,-123.256355,81.20,1,5,0.845,-0.009,-0.050,-0.532
-0.38,-0.01,-0.40,1014.094,-0.050601,-0.042800,0.014382,49.261543,-123.256355,81.20,1,5,0.845,-0.008,-0.049,-0.533
-0.38,-0.01,-0.40,1014.094,-0.049403,-0.011999,0.010843,49.261543,-123.256355,81.20,1,5,0.844,-0.008,-0.049,-0.534
-0.38,-0.01,-0.42,1014.096,-0.060009,-0.008240,0.003339,49.261543,-123.256355,81.20,1,5,0.843,-0.007,-0.049,-0.536
-0.38,-0.01,-0.42,1014.096,-0.061872,-0.016668,0.011508,49.261543,-123.256355,81.20,1,5,0.842,-0.007,-0.049,-0.537
-0.38,-0.00,-0.45,1014.100,-0.033197,-0.038852,0.037797,49.261543,-123.256355,81.20,1,5,0.841,-0.005,-0.049,-0.539
-0.38,0.00,-0.45,1014.100,-0.039381,-0.050586,0.048171,49.261543,-123.256355,81.20,1,5,0.840,-0.004,-0.049,-0.541
-0.38,0.01,-0.34,1014.087,-0.040165,-0.036147,0.044590,49.261543,-123.256355,81.20,1,5,0.839,-0.003,-0.048,-0.542
-0.38,0.02,-0.34,1014.087,-0.034572,-0.024039,0.041993,49.261543,-123.256355,81.20,1,5,0.838,-0.003,-0.048,-0.543
-0.38,0.03,-0.32,1014.085,-0.037504,-0.026900,0.035494,49.261543,-123.256355,81.20,1,5,0.838,-0.003,-0.047,-0.544
-0.38,0.03,-0.32,1014.085,-0.047827,-0.029083,0.013242,49.261543,-123.256355,81.20,1,5,0.837,-0.003,-0.047,-0.545
-0.38,0.03,-0.35,1014.088,-0.073274,-0.022279,-0.011081,49.261543,-123.256355,81.20,1,5,0.836,-0.004,-0.047,-0.546
-0.38,0.02,-0.35,1014.088,-0.073306,-0.007392,-0.015021,49.261543,-123.256355,81.20,1,5,0.836,-0.004,-0.047,-0.547
-0.38,0.03,-0.37,1014.090,-0.056073,-0.020042,0.005354,49.261543,-123.256355,81.20,1,5,0.835,-0.005,-0.049,-0.548
-0.38,0.03,-0.37,1014.090,-0.039671,-0.033867,0.036371,49.261543,-123.256355,81.20,1,5,0.834,-0.005,-0.049,-0.549
-0.38,0.04,-0.39,1014.093,-0.039641,-0.037408,0.030078,49.261543,-123.256355,81.20,1,5,0.834,-0.006,-0.050,-0.550
-0.38,0.04,-0.39,1014.093,-0.058940,-0.034470,-0.002448,49.261543,-123.256355,81.20,1,5,0.834,-0.006,-0.050,-0.550
-0.38,0.03,-0.42,1014.097,-0.072024,-0.029607,-0.014537,49.261543,-123.256355,81.60,1,5,0.834,-0.006,-0.049,-0.550
-0.38,0.03,-0.42,1014.097,-0.066616,-0.023402,-0.022410,49.261543,-123.256355,81.60,1,5,0.833,-0.006,-0.049,-0.551
-0.38,0.03,-0.35,1014.088,-0.060608,-0.012407,0.003277,49.261543,-123.256355,81.60,1,5,0.833,-0.006,-0.049,-0.551
-0.37,0.03,-0.35,1014.088,-0.058957,-0.012989,0.005336,49.261543,-123.256355,81.60,1,5,0.832,-0.006,-0.048,-0.552
-0.37,0.03,-0.33,1014.085,-0.055194,-0.009986,-0.010326,49.261543,-123.256355,81.60,1,5,0.832,-0.006,-0.048,-0.553
-0.37,0.03,-0.33,1014.085,-0.047078,-0.009821,-0.012972,49.261543,-123.256355,81.60,1,5,0.831,-0.006,-0.048,-0.554
-0.37,0.03,-0.35,1014.088,-0.043394,-0.009972,-0.001458,49.261543,-123.256355,81.60,1,5,0.830,-0.006,-0.047,-0.555
-0.37,0.02,-0.35,1014.088,-0.047288,-0.016027,-0.017850,49.261543,-123.256355,81.60,1,5,0.830,-0.006,-0.047,-0.556
-0.37,0.02,-0.48,1014.103,-0.046545,-0.014494,-0.031448,49.261543,-123.256355,81.60,1,5,0.829,-0.006,-0.046,-0.557
-0.37,0.01,-0.48,1014.103,-0.053103,-0.010359,-0.039824,49.261543,-123.256355,81.60,1,5,0.829,-0.006,-0.046,-0.558
-0.37,0.00,-0.42,1014.097,-0.058174,-0.003884,-0.040860,49.261543,-123.256355,81.60,1,5,0.828,-0.005,-0.046,-0.559
-0.37,-0.00,-0.42,1014.097,-0.047883,0.000132,-0.022754,49.261543,-123.256355,81.60,1,5,0.827,-0.005,-0.046,-0.560
-0.37,-0.00,-0.42,1014.097,-0.060849,-0.019905,-0.023260,49.261543,-123.256355,81.60,1,5,0.826,-0.004,-0.046,-0.562
-0.38,-0.01,-0.42,1014.097,-0.056885,-0.030267,-0.003560,49.261543,-123.256355,81.60,1,5,0.825,-0.004,-0.046,-0.564
-0.38,-0.00,-0.44,1014.098,-0.041051,-0.053761,0.009616,49.261543,-123.256355,81.60,1,5,0.823,-0.003,-0.046,-0.566
-0.38,-0.00,-0.44,1014.098,-0.039742,-0.059992,0.013130,49.261543,-123.256355,81.60,1,5,0.822,-0.002,-0.045,-0.567
-0.38,-0.00,-0.37,1014.090,-0.051780,-0.053974,-0.000971,49.261543,-123.256355,81.60,1,5,0.822,-0.002,-0.045,-0.568
-0.38,-0.00,-0.37,1014.090,-0.056979,-0.041151,-0.001909,49.261543,-123.256355,81.60,1,5,0.821,-0.001,-0.045,-0.569
-0.38,-0.00,-0.27,1014.078,-0.047139,-0.020990,0.008440,49.261543,-123.256355,81.60,1,5,0.821,-0.001,-0.045,-0.569
-0.37,-0.00,-0.27,1014.078,-0.055432,-0.016807,-0.009399,49.261543,-123.256355,81.60,1,5,0.820,0.000,-0.044,-0.571
-0.37,-0.00,0.02,1014.043,-0.041506,-0.013729,-0.016260,49.261543,-123.256355,81.60,1,5,0.819,0.001,-0.044,-0.572
-0.36,0.00,0.02,1014.043,-0.046497,-0.015700,-0.000709,49.261543,-123.256355,81.60,1,5,0.818,0.003,-0.043,-0.574
-0.36,0.00,-0.16,1014.065,-0.048316,-0.031297,0.017184,49.261543,-123.256355,81.60,1,5,0.816,0.004,-0.044,-0.576
-0.36,0.01,-0.16,1014.065,-0.039886,-0.046842,0.043954,49.261543,-123.256355,81.60,1,5,0.815,0.005,-0.044,-0.577
-0.36,0.02,-0.24,1014.075,-0.034761,-0.048198,0.064735,49.261543,-123.256355,81.60,1,5,0.814,0.006,-0.044,-0.579
-0.35,0.04,-0.24,1014.075,-0.030706,-0.034001,0.073756,49.261543,-123.256355,81.60,1,5,0.814,0.006,-0.044,-0.580
-0.35,0.05,0.03,1014.042,-0.049719,-0.016498,0.047716,49.261543,-123.256355,81.60,1,5,0.813,0.005,-0.044,-0.581
-0.34,0.05,0.03,1014.042,-0.056856,-0.005490,0.005766,49.261543,-123.256355,81.60,1,5,0.812,0.005,-0.043,-0.583
-0.34,0.05,-0.06,1014.053,-0.055164,0.002985,0.003614,49.261543,-123.256355,81.60,1,5,0.810,0.004,-0.043,-0.584
-0.33,0.06,-0.06,1014.053,-0.046687,-0.019031,0.019051,49.261543,-123.256355,81.60,1,5,0.809,0.003,-0.044,-0.587
-0.33,0.06,-0.11,1014.058,-0.038655,-0.040539,0.019304,49.261543,-123.256355,81.60,1,5,0.807,0.003,-0.044,-0.589
-0.32,0.07,-0.11,1014.058,-0.036481,-0.051884,0.021804,49.261543,-123.256355,81.60,1,5,0.806,0.002,-0.044,-0.591
-0.32,0.07,-0.20,1014.070,-0.048077,-0.038069,0.011019,49.261543,-123.256355,81.60,1,5,0.804,0.001,-0.043,-0.593
-0.32,0.07,-0.20,1014.070,-0.045819,-0.016835,-0.012612,49.261543,-123.256355,81.60,1,5,0.803,-0.000,-0.043,-0.594
-0.31,0.07,-0.22,1014.072,-0.045792,-0.024269,-0.020193,49.261543,-123.256355,81.60,1,5,0.802,-0.001,-0.043,-0.596
-0.31,0.06,-0.22,1014.072,-0.036420,-0.037740,-0.013534,49.261543,-123.256355,81.60,1,5,0.800,-0.002,-0.044,-0.599
-0.31,0.07,-0.20,1014.070,-0.017363,-0.064156,0.013900,49.261543,-123.256355,81.60,1,5,0.798,-0.002,-0.044,-0.601
-0.31,0.07,-0.20,1014.070,-0.028627,-0.076911,0.006570,49.261543,-123.256355,81.60,1,5,0.797,-0.003,-0.044,-0.602
-0.30,0.07,-0.26,1014.077,-0.035195,-0.060869,-0.019803,49.261543,-123.256355,81.60,1,5,0.796,-0.004,-0.043,-0.604
-0.30,0.07,-0.26,1014.077,-0.041195,-0.041031,-0.002746,49.261543,-123.256355,81.60,1,5,0.795,-0.004,-0.042,-0.605
-0.30,0.06,-0.31,1014.083,-0.041558,-0.050234,-0.028746,49.261543,-123.256355,81.60,1,5,0.794,-0.004,-0.042,-0.607
-0.30,0.06,-0.31,1014.083,-0.030337,-0.048197,-0.005953,49.261543,-123.256355,81.60,1,5,0.793,-0.004,-0.041,-0.608
-0.30,0.06,-0.33,1014.085,-0.036170,-0.059646,0.001336,49.261543,-123.256355,81.60,1,5,0.792,-0.004,-0.041,-0.610
-0.30,0.06,-0.33,1014.085,-0.047682,-0.048250,-0.025306,49.261543,-123.256355,81.60,1,5,0.790,-0.004,-0.040,-0.611
-0.30,0.06,-0.38,1014.092,-0.040628,-0.028963,0.004129,49.261543,-123.256355,81.60,1,5,0.789,-0.004,-0.040,-0.612
-0.30,0.06,-0.38,1014.092,-0.030399,-0.022974,0.018611,49.261543,-123.256355,81.60,1,5,0.788,-0.004,-0.040,-0.614
-0.30,0.06,-0.46,1014.092,-0.045028,-0.035945,0.009943,49.261543,-123.256355,81.60,1,5,0.787,-0.004,-0.040,-0.616
-0.30,0.06,-0.46,1014.102,-0.032822,-0.034216,0.022097,49.261543,-123.256355,81.60,1,5,0.786,-0.005,-0.040,-0.617
-0.30,0.06,-0.37,1014.102,-0.047680,-0.039163,0.008095,49.261543,-123.256355,81.60,1,5,0.785,-0.005,-0.039,-0.619
-0.30,0.06,-0.44,1014.099,-0.056429,-0.029429,-0.006891,49.261543,-123.256355,81.60,1,5,0.783,-0.006,-0.039,-0.620
-0.30,0.06,-0.44,1014.099,-0.048793,-0.031342,-0.012232,49.261543,-123.256355,81.60,1,5,0.782,-0.006,-0.039,-0.622
-0.31,0.06,-0.45,1014.100,-0.041214,-0.028735,-0.002872,49.261543,-123.256355,81.60,1,5,0.781,-0.006,-0.039,-0.624
-0.31,0.05,-0.45,1014.100,-0.037636,-0.045044,-0.007532,49.261547,-123.256348,81.60,1,5,0.779,-0.006,-0.040,-0.625
-0.31,0.05,-0.43,1014.097,-0.033213,-0.047608,-0.001208,49.261547,-123.256348,81.60,1,5,0.778,-0.006,-0.040,-0.627
-0.31,0.06,-0.43,1014.097,-0.031672,-0.065393,0.013415,49.261547,-123.256348,81.60,1,5,0.777,-0.006,-0.040,-0.629
-0.31,0.06,-0.37,1014.091,-0.044027,-0.066413,0.014977,49.261547,-123.256348,81.60,1,5,0.776,-0.006,-0.039,-0.630
-0.31,0.06,-0.37,1014.091,-0.049423,-0.054114,0.001412,49.261547,-123.256348,81.60,1,5,0.775,-0.006,-0.039,-0.631
-0.31,0.05,-0.39,1014.092,-0.054980,-0.034262,-0.017970,49.261547,-123.256348,81.60,1,5,0.774,-0.006,-0.038,-0.632
-0.31,0.05,-0.39,1014.092,-0.049596,-0.027612,-0.021281,49.261547,-123.256348,81.60,1,5,0.773,-0.006,-0.038,-0.633
-0.31,0.05,-0.41,1014.095,-0.044519,-0.031521,-0.012210,49.261547,-123.256348,81.60,1,5,0.772,-0.006,-0.038,-0.635
-0.31,0.05,-0.41,1014.095,-0.048985,-0.045140,0.007720,49.261547,-123.256348,81.60,1,5,0.770,-0.006,-0.039,-0.636
-0.31,0.05,-0.51,1014.107,-0.043210,-0.040674,0.007768,49.261547,-123.256348,81.60,1,5,0.769,-0.006,-0.039,-0.638
-0.31,0.05,-0.51,1014.107,-0.025794,-0.033446,0.023172,49.261547,-123.256348,81.60,1,5,0.768,-0.006,-0.039,-0.639
-0.32,0.05,-0.51,1014.107,-0.029907,-0.037973,0.027058,49.261547,-123.256348,81.60,1,5,0.767,-0.006,-0.038,-0.641
-0.32,0.05,-0.51,1014.107,-0.053985,-0.024779,0.001270,49.261547,-123.256348,81.60,1,5,0.766,-0.006,-0.037,-0.642
-0.32,0.05,-0.54,1014.110,-0.059555,-0.033714,-0.016812,49.261547,-123.256348,81.60,1,5,0.764,-0.006,-0.037,-0.644
-0.32,0.04,-0.54,1014.110,-0.071483,-0.054562,-0.021413,49.261547,-123.256348,81.60,1,5,0.763,-0.007,-0.038,-0.646
-0.32,0.04,-0.54,1014.110,-0.066003,-0.062480,0.000794,49.261547,-123.256348,81.60,1,5,0.762,-0.007,-0.038,-0.647
-0.33,0.05,-0.54,1014.110,-0.044555,-0.063019,0.026176,49.261547,-123.256348,81.60,1,5,0.761,-0.007,-0.038,-0.648
-0.33,0.05,-0.44,1014.099,-0.044504,-0.045872,0.022133,49.261547,-123.256348,81.60,1,5,0.760,-0.007,-0.038,-0.649
-0.33,0.05,-0.44,1014.099,-0.050979,-0.024513,0.010166,49.261547,-123.256348,81.60,1,5,0.759,-0.007,-0.037,-0.650
-0.33,0.05,-0.47,1014.102,-0.044742,-0.017093,0.011926,49.261547,-123.256348,81.60,1,5,0.758,-0.007,-0.037,-0.651
-0.33,0.05,-0.47,1014.102,-0.064240,-0.022640,-0.010167,49.261547,-123.256348,81.60,1,5,0.757,-0.007,-0.036,-0.653
-0.33,0.05,-0.49,1014.105,-0.054868,-0.022993,-0.007448,49.261547,-123.256348,81.60,1,5,0.755,-0.008,-0.036,-0.654
-0.33,0.05,-0.49,1014.105,-0.043750,-0.027161,0.001715,49.261547,-123.256348,81.60,1,5,0.754,-0.008,-0.037,-0.656
-0.34,0.05,-0.56,1014.114,-0.039261,-0.036242,0.011113,49.261547,-123.256348,81.60,1,5,0.753,-0.009,-0.037,-0.657
-0.34,0.05,-0.56,1014.114,-0.036350,-0.033902,0.009661,49.261547,-123.256348,81.60,1,5,0.752,-0.009,-0.036,-0.659
-0.34,0.05,-0.52,1014.109,-0.043638,-0.033044,-0.003425,49.261547,-123.256348,81.60,1,5,0.750,-0.010,-0.036,-0.660
-0.34,0.04,-0.52,1014.109,-0.042407,-0.030214,-0.014053,49.261547,-123.256348,81.60,1,5,0.749,-0.010,-0.036,-0.662
-0.34,0.04,-0.47,1014.102,-0.032465,-0.043406,-0.002753,49.261547,-123.256348,81.60,1,5,0.747,-0.010,-0.036,-0.663
-0.34,0.04,-0.47,1014.102,-0.033606,-0.045840,0.007662,49.261547,-123.256348,81.60,1,5,0.746,-0.011,-0.035,-0.665
-0.35,0.04,-0.52,1014.109,-0.036179,-0.047177,-0.016542,49.261547,-123.256348,81.60,1,5,0.745,-0.011,-0.035,-0.666
-0.35,0.03,-0.52,1014.109,-0.048976,-0.043979,-0.023531,49.261547,-123.256348,81.60,1,5,0.744,-0.011,-0.035,-0.667
-0.35,0.03,-0.47,1014.102,-0.041299,-0.038022,-0.021152,49.261547,-123.256348,81.60,1,5,0.743,-0.012,-0.035,-0.669
-0.35,0.02,-0.47,1014.102,-0.048922,-0.038665,-0.019943,49.261547,-123.256348,81.60,1,5,0.741,-0.012,-0.035,-0.670
-0.35,0.02,-0.49,1014.105,-0.044427,-0.053432,-0.007653,49.261547,-123.256348,81.60,1,5,0.740,-0.011,-0.035,-0.671
-0.35,0.02,-0.49,1014.105,-0.044757,-0.054230,0.001086,49.261547,-123.256348,81.60,1,5,0.739,-0.011,-0.034,-0.673
-0.35,0.02,-0.43,1014.097,-0.052813,-0.051430,0.004434,49.261547,-123.256348,81.60,1,5,0.738,-0.010,-0.034,-0.674
-0.35,0.02,-0.43,1014.097,-0.057729,-0.045143,0.002811,49.261547,-123.256348,81.60,1,5,0.737,-0.010,-0.034,-0.675
-0.35,0.02,-0.37,1014.090,-0.047949,-0.027226,0.004945,49.261547,-123.256348,81.60,1,5,0.736,-0.010,-0.033,-0.676
-0.35,0.02,-0.37,1014.090,-0.051940,-0.018538,0.006919,49.261547,-123.256348,81.60,1,5,0.735,-0.010,-0.033,-0.678
-0.35,0.02,-0.43,1014.097,-0.044290,-0.021887,0.009529,49.261547,-123.256348,81.60,1,5,0.733,-0.009,-0.033,-0.679
-0.36,0.03,-0.43,1014.097,-0.031837,-0.021392,0.025068,49.261547,-123.256348,81.60,1,5,0.732,-0.009,-0.033,-0.680
-0.36,0.03,-0.44,1014.099,-0.040336,-0.017370,0.019360,49.261547,-123.256348,81.60,1,5,0.731,-0.009,-0.033,-0.682
-0.36,0.03,-0.44,1014.099,-0.044143,-0.010983,0.010567,49.261547,-123.256348,81.60,1,5,0.729,-0.009,-0.032,-0.683
-0.36,0.03,-0.39,1014.092,-0.041674,-0.023650,-0.004434,49.261547,-123.256348,81.60,1,5,0.728,-0.009,-0.032,-0.685
-0.36,0.03,-0.39,1014.092,-0.046102,-0.039525,-0.019181,49.261547,-123.256348,81.60,1,5,0.726,-0.010,-0.033,-0.687
-0.36,0.03,-0.34,1014.087,-0.045165,-0.054252,0.004128,49.261547,-123.256348,81.60,1,5,0.724,-0.010,-0.033,-0.689
-0.35,0.03,-0.34,1014.087,-0.049808,-0.069639,-0.012153,49.261547,-123.256348,81.60,1,5,0.723,-0.011,-0.033,-0.690
-0.35,0.03,-0.26,1014.077,-0.046395,-0.064638,-0.015792,49.261547,-123.256348,81.60,1,5,0.721,-0.010,-0.033,-0.692
-0.35,0.03,-0.26,1014.077,-0.045631,-0.051796,-0.000945,49.261547,-123.256348,81.60,1,5,0.720,-0.010,-0.033,-0.693
-0.35,0.03,-0.43,1014.097,-0.038389,-0.059970,0.011494,49.261547,-123.256348,81.60,1,5,0.719,-0.010,-0.033,-0.694
-0.35,0.03,-0.43,1014.097,-0.050352,-0.055615,0.002977,49.261547,-123.256348,81.60,1,5,0.718,-0.010,-0.033,-0.695
-0.35,0.03,-0.19,1014.069,-0.040728,-0.041770,0.017390,49.261547,-123.256348,81.60,1,5,0.717,-0.010,-0.033,-0.697
-0.35,0.03,-0.19,1014.069,-0.048451,-0.037124,0.012958,49.261547,-123.256348,81.60,1,5,0.715,-0.010,-0.033,-0.698
-0.35,0.03,-0.30,1014.082,-0.055195,-0.034729,-0.000584,49.261547,-123.256348,81.60,1,5,0.714,-0.010,-0.033,-0.699
-0.34,0.03,-0.30,1014.082,-0.047174,-0.035990,-0.001439,49.261547,-123.256348,81.60,1,5,0.713,-0.010,-0.033,-0.700
-0.34,0.04,-0.23,1014.074,-0.044248,-0.033858,0.011014,49.261547,-123.256348,81.60,1,5,0.712,-0.010,-0.033,-0.701
-0.34,0.04,-0.23,1014.074,-0.049889,-0.019894,0.005322,49.261547,-123.256348,81.60,1,5,0.711,-0.010,-0.033,-0.702
-0.34,0.04,-0.31,1014.083,-0.044431,-0.018188,0.000014,49.261547,-123.256348,81.60,1,5,0.710,-0.010,-0.033,-0.704
-0.34,0.04,-0.31,1014.083,-0.044985,-0.016421,-0.001063,49.261547,-123.256348,81.60,1,5,0.708,-0.010,-0.033,-0.705
-0.34,0.04,-0.32,1014.084,-0.049231,-0.024415,-0.010929,49.261547,-123.256348,81.60,1,5,0.707,-0.011,-0.033,-0.707
-0.34,0.04,-0.32,1014.084,-0.064524,-0.033708,-0.008808,49.261547,-123.256348,81.60,1,5,0.705,-0.011,-0.033,-0.708
-0.34,0.03,-0.37,1014.091,-0.053580,-0.039479,-0.005129,49.261547,-123.256348,81.60,1,5,0.704,-0.011,-0.033,-0.710
-0.34,0.03,-0.37,1014.091,-0.057200,-0.042081,-0.002895,49.261547,-123.256348,81.60,1,5,0.702,-0.011,-0.033,-0.711
-0.34,0.03,-0.36,1014.089,-0.050267,-0.041883,0.003357,49.261547,-123.256348,81.60,1,5,0.701,-0.010,-0.033,-0.713
-0.34,0.04,-0.36,1014.089,-0.042695,-0.032799,0.016675,49.261547,-123.256348,81.60,1,5,0.699,-0.010,-0.033,-0.714
-0.33,0.04,-0.29,1014.081,-0.038529,-0.022038,0.015405,49.261547,-123.256348,81.60,1,5,0.698,-0.010,-0.033,-0.715
-0.33,0.04,-0.29,1014.081,-0.045770,-0.019629,0.009955,49.261547,-123.256348,81.60,1,5,0.696,-0.010,-0.033,-0.717
-0.33,0.04,-0.39,1014.093,-0.046944,-0.039296,0.008324,49.261547,-123.256348,81.60,1,5,0.694,-0.011,-0.033,-0.719
-0.33,0.04,-0.39,1014.093,-0.054162,-0.055754,0.000015,49.261547,-123.256348,81.60,1,5,0.692,-0.011,-0.034,-0.721
-0.33,0.04,-0.36,1014.089,-0.059048,-0.058274,0.000934,49.261547,-123.256348,81.60,1,5,0.691,-0.012,-0.034,-0.722
-0.33,0.04,-0.36,1014.089,-0.069896,-0.048210,-0.016292,49.261547,-123.256348,81.60,1,5,0.689,-0.012,-0.034,-0.723
-0.33,0.04,-0.39,1014.093,-0.060315,-0.032798,-0.004183,49.261547,-123.256348,81.60,1,5,0.688,-0.013,-0.035,-0.724
-0.33,0.04,-0.39,1014.093,-0.037144,-0.027722,0.008729,49.261547,-123.256348,81.60,1,5,0.687,-0.013,-0.035,-0.725
-0.33,0.04,-0.36,1014.089,-0.036565,-0.017178,0.010478,49.261547,-123.256348,81.60,1,5,0.686,-0.013,-0.035,-0.727
-0.33,0.04,-0.36,1014.089,-0.031102,-0.035635,0.009155,49.261547,-123.256348,81.60,1,5,0.684,-0.013,-0.035,-0.728
-0.33,0.04,-0.33,1014.086,-0.048074,-0.032118,-0.001940,49.261547,-123.256348,81.60,1,5,0.682,-0.013,-0.034,-0.730
-0.33,0.04,-0.33,1014.086,-0.052784,-0.030383,-0.017159,49.261547,-123.256348,81.60,1,5,0.681,-0.013,-0.033,-0.731
-0.33,0.03,-0.26,1014.078,-0.060854,-0.025532,-0.035533,49.261547,-123.256348,81.60,1,5,0.680,-0.013,-0.033,-0.733
-0.33,0.03,-0.26,1014.078,-0.051960,-0.026711,-0.016805,49.261547,-123.256348,81.60,1,5,0.678,-0.013,-0.034,-0.734
-0.33,0.03,-0.32,1014.084,-0.052365,-0.034673,0.005051,49.261547,-123.256348,81.60,1,5,0.677,-0.013,-0.034,-0.735
-0.33,0.03,-0.32,1014.084,-0.049694,-0.038059,-0.001565,49.261547,-123.256348,81.60,1,5,0.675,-0.013,-0.034,-0.737
-0.33,0.03,-0.39,1014.093,-0.039111,-0.042995,0.017233,49.261547,-123.256348,81.60,1,5,0.673,-0.013,-0.033,-0.739
-0.33,0.04,-0.39,1014.093,-0.042147,-0.038995,0.011316,49.261547,-123.256348,81.60,1,5,0.672,-0.012,-0.032,-0.740
-0.33,0.04,-0.36,1014.089,-0.041218,-0.033719,0.006233,49.261547,-123.256348,81.60,1,5,0.670,-0.011,-0.032,-0.741
-0.33,0.04,-0.36,1014.089,-0.049354,-0.024542,0.000779,49.261547,-123.256348,81.60,1,5,0.669,-0.011,-0.032,-0.743
-0.33,0.03,-0.43,1014.097,-0.049172,-0.023944,-0.008495,49.261547,-123.256348,81.60,1,5,0.667,-0.012,-0.032,-0.744
-0.33,0.03,-0.43,1014.097,-0.045914,-0.034571,0.005586,49.261547,-123.256348,81.60,1,5,0.666,-0.012,-0.033,-0.745
-0.33,0.04,-0.51,1014.107,-0.037707,-0.047895,0.010369,49.261547,-123.256348,81.60,1,5,0.665,-0.012,-0.033,-0.746
-0.33,0.04,-0.51,1014.107,-0.046550,-0.049342,0.017249,49.261547,-123.256348,81.60,1,5,0.663,-0.012,-0.033,-0.748
-0.33,0.04,-0.49,1014.104,-0.047787,-0.041635,0.003862,49.261547,-123.256348,81.60,1,5,0.662,-0.011,-0.032,-0.749
-0.34,0.04,-0.49,1014.104,-0.042109,-0.036093,0.011627,49.261547,-123.256348,81.60,1,5,0.660,-0.011,-0.032,-0.750
-0.34,0.04,-0.57,1014.114,-0.052603,-0.029811,-0.002282,49.261543,-123.256348,81.60,1,5,0.659,-0.011,-0.031,-0.751
-0.34,0.04,-0.57,1014.114,-0.052122,-0.025806,0.000949,49.261543,-123.256348,81.60,1,5,0.658,-0.011,-0.031,-0.752
-0.34,0.03,-0.55,1014.112,-0.043029,-0.023748,-0.007198,49.261543,-123.256348,81.60,1,5,0.657,-0.011,-0.031,-0.754
-0.35,0.03,-0.55,1014.112,-0.048849,-0.034189,-0.001747,49.261543,-123.256348,81.60,1,5,0.655,-0.011,-0.032,-0.755
-0.35,0.03,-0.51,1014.107,-0.056774,-0.033896,-0.001243,49.261543,-123.256348,81.60,1,5,0.654,-0.011,-0.032,-0.756
-0.35,0.03,-0.51,1014.107,-0.059451,-0.035597,0.001167,49.261543,-123.256348,81.60,1,5,0.652,-0.011,-0.031,-0.757
-0.35,0.03,-0.57,1014.114,-0.046307,-0.025983,-0.012630,49.261543,-123.256348,81.60,1,5,0.651,-0.011,-0.031,-0.758
-0.35,0.02,-0.57,1014.114,-0.047278,-0.024585,-0.006897,49.261543,-123.256348,81.60,1,5,0.650,-0.011,-0.031,-0.759
-0.35,0.02,-0.40,1014.094,-0.053671,-0.017461,-0.001866,49.261543,-123.256348,81.60,1,5,0.649,-0.010,-0.031,-0.760
-0.36,0.02,-0.40,1014.094,-0.055466,-0.031698,-0.008884,49.261543,-123.256348,81.60,1,5,0.647,-0.010,-0.031,-0.762
-0.35,0.02,-0.34,1014.086,-0.047201,-0.033139,0.002874,49.261543,-123.256348,81.60,1,5,0.646,-0.010,-0.031,-0.763
-0.35,0.02,-0.34,1014.086,-0.057355,-0.027545,0.000520,49.261543,-123.256348,81.60,1,5,0.644,-0.010,-0.030,-0.764
-0.35,0.02,-0.32,1014.085,-0.044686,-0.030735,-0.005681,49.261543,-123.256348,81.60,1,5,0.643,-0.010,-0.030,-0.765
-0.35,0.02,-0.32,1014.085,-0.049565,-0.042550,0.009239,49.261543,-123.256348,81.60,1,5,0.642,-0.009,-0.030,-0.766
-0.35,0.02,-0.45,1014.100,-0.049947,-0.029247,0.008652,49.261543,-123.256348,81.60,1,5,0.640,-0.009,-0.029,-0.767
-0.35,0.02,-0.45,1014.100,-0.044859,-0.027572,0.004992,49.261543,-123.256348,81.60,1,5,0.639,-0.009,-0.029,-0.768
-0.35,0.03,-0.35,1014.088,-0.041784,-0.019943,0.008064,49.261543,-123.256348,81.60,1,5,0.638,-0.009,-0.029,-0.770
-0.35,0.03,-0.35,1014.088,-0.044212,-0.039982,0.012095,49.261543,-123.256348,81.60,1,5,0.636,-0.009,-0.029,-0.771
-0.35,0.03,-0.38,1014.091,-0.059201,-0.045977,-0.002828,49.261543,-123.256348,81.60,1,5,0.635,-0.009,-0.029,-0.772
-0.35,0.02,-0.38,1014.091,-0.066142,-0.042264,-0.015214,49.261543,-123.256348,81.60,1,5,0.633,-0.009,-0.029,-0.773
-0.35,0.03,-0.24,1014.075,-0.058652,-0.040130,0.002146,49.261543,-123.256348,81.60,1,5,0.632,-0.009,-0.029,-0.774
-0.35,0.03,-0.24,1014.075,-0.060338,-0.036260,0.003281,49.261543,-123.256348,81.60,1,5,0.631,-0.008,-0.029,-0.775
-0.35,0.03,-0.20,1014.070,-0.049439,-0.024200,0.002309,49.261543,-123.256348,81.60,1,5,0.630,-0.008,-0.028,-0.776
-0.34,0.03,-0.20,1014.070,-0.037480,-0.020066,0.003300,49.261543,-123.256348,81.60,1,5,0.629,-0.008,-0.028,-0.777
-0.34,0.03,-0.13,1014.062,-0.051808,-0.023772,-0.007382,49.261543,-123.256348,81.60,1,5,0.628,-0.007,-0.028,-0.778
-0.34,0.03,-0.13,1014.062,-0.061687,-0.030519,-0.002856,49.261543,-123.256348,81.60,1,5,0.626,-0.007,-0.028,-0.779
-0.33,0.03,-0.09,1014.057,-0.047964,-0.035075,0.020207,49.261543,-123.256348,81.60,1,5,0.625,-0.007,-0.028,-0.780
-0.33,0.04,-0.09,1014.057,-0.059402,-0.026981,0.006489,49.261543,-123.256348,81.60,1,5,0.624,-0.007,-0.028,-0.781
-0.32,0.04,-0.09,1014.057,-0.050571,-0.017995,0.000565,49.261543,-123.256348,81.60,1,5,0.623,-0.007,-0.028,-0.782
-0.32,0.04,-0.13,1014.062,-0.049947,-0.011626,0.004632,49.261543,-123.256348,81.60,1,5,0.621,-0.007,-0.028,-0.783
-0.32,0.04,-0.13,1014.062,-0.049429,-0.023162,0.011362,49.261543,-123.256348,81.60,1,5,0.620,-0.007,-0.028,-0.784
-0.31,0.04,-0.15,1014.064,-0.060678,-0.031784,0.001772,49.261543,-123.256348,81.60,1,5,0.618,-0.007,-0.028,-0.786
-0.31,0.04,-0.15,1014.064,-0.054946,-0.025315,-0.006504,49.261543,-123.256348,81.60,1,5,0.616,-0.007,-0.028,-0.787
-0.31,0.05,-0.25,1014.075,-0.049724,-0.030788,0.002965,49.261543,-123.256348,81.60,1,5,0.615,-0.007,-0.028,-0.788
-0.31,0.05,-0.25,1014.075,-0.052822,-0.034736,0.000421,49.261543,-123.256348,81.60,1,5,0.614,-0.007,-0.028,-0.789
-0.31,0.05,-0.29,1014.080,-0.062504,-0.036440,0.007859,49.261543,-123.256348,81.60,1,5,0.612,-0.007,-0.028,-0.790
-0.31,0.05,-0.29,1014.080,-0.050755,-0.040985,0.013486,49.261543,-123.256348,81.60,1,5,0.611,-0.007,-0.028,-0.791
-0.31,0.05,-0.32,1014.084,-0.052256,-0.035506,0.007279,49.261543,-123.256348,81.60,1,5,0.609,-0.006,-0.028,-0.792
-0.30,0.05,-0.32,1014.084,-0.049600,-0.030900,0.005378,49.261543,-123.256348,81.60,1,5,0.608,-0.006,-0.028,-0.793
-0.30,0.05,-0.26,1014.077,-0.050626,-0.031518,0.007100,49.261543,-123.256348,81.60,1,5,0.607,-0.006,-0.027,-0.794
-0.30,0.06,-0.26,1014.077,-0.058476,-0.035464,0.010575,49.261543,-123.256348,81.60,1,5,0.605,-0.007,-0.027,-0.795
-0.30,0.06,-0.29,1014.080,-0.055774,-0.038655,0.008373,49.261543,-123.256348,81.60,1,5,0.604,-0.007,-0.027,-0.796
-0.30,0.06,-0.29,1014.080,-0.044270,-0.031349,0.016569,49.261543,-123.256348,81.60,1,5,0.603,-0.007,-0.027,-0.797
-0.29,0.06,-0.05,1014.052,-0.052374,-0.033241,0.004501,49.261543,-123.256348,81.60,1,5,0.602,-0.007,-0.027,-0.798
-0.29,0.06,-0.05,1014.052,-0.055452,-0.024981,-0.010902,49.261543,-123.256348,81.60,1,5,0.601,-0.007,-0.027,-0.799
-0.29,0.06,-0.10,1014.057,-0.056993,-0.021462,-0.012079,49.261543,-123.256348,81.60,1,5,0.599,-0.007,-0.026,-0.800
-0.28,0.06,-0.10,1014.057,-0.059588,-0.014407,-0.017607,49.261543,-123.256348,81.60,1,5,0.598,-0.007,-0.026,-0.801
-0.28,0.06,-0.15,1014.064,-0.059879,-0.020606,-0.011917,49.261543,-123.256348,81.60,1,5,0.597,-0.007,-0.026,-0.802
-0.28,0.06,-0.15,1014.064,-0.051532,-0.020960,-0.000262,49.261543,-123.256348,81.60,1,5,0.596,-0.007,-0.026,-0.803
-0.28,0.06,-0.28,1014.079,-0.045969,-0.019374,0.003419,49.261543,-123.256348,81.60,1,5,0.595,-0.007,-0.026,-0.804
-0.27,0.06,-0.28,1014.079,-0.043282,-0.016097,0.006215,49.261543,-123.256348,81.60,1,5,0.593,-0.007,-0.026,-0.805
-0.27,0.06,-0.30,1014.082,-0.047084,-0.016832,0.013983,49.261543,-123.256348,81.60,1,5,0.592,-0.007,-0.026,-0.806
-0.27,0.07,-0.30,1014.082,-0.045072,-0.030717,0.021809,49.261543,-123.256348,81.60,1,5,0.590,-0.007,-0.026,-0.807
-0.27,0.07,-0.29,1014.081,-0.043195,-0.025448,0.010108,49.261543,-123.256348,81.60,1,5,0.589,-0.007,-0.026,-0.808
-0.27,0.07,-0.29,1014.081,-0.056555,-0.022587,0.002169,49.261543,-123.256348,81.60,1,5,0.587,-0.007,-0.026,-0.809
-0.27,0.07,-0.32,1014.084,-0.055906,-0.025201,0.001373,49.261543,-123.256348,81.60,1,5,0.586,-0.008,-0.026,-0.810
-0.27,0.07,-0.32,1014.084,-0.064308,-0.037537,-0.005695,49.261543,-123.256348,81.60,1,5,0.585,-0.008,-0.025,-0.811
-0.27,0.06,-0.37,1014.090,-0.061801,-0.038145,-0.004140,49.261543,-123.256348,81.60,1,5,0.583,-0.008,-0.025,-0.812
-0.27,0.06,-0.37,1014.090,-0.061015,-0.047521,0.002687,49.261543,-123.256348,81.60,1,5,0.582,-0.008,-0.025,-0.813
-0.27,0.07,-0.33,1014.086,-0.056756,-0.050510,0.012644,49.261543,-123.256348,81.60,1,5,0.581,-0.008,-0.025,-0.814
-0.27,0.07,-0.33,1014.086,-0.049048,-0.040523,0.011476,49.261543,-123.256348,81.60,1,5,0.580,-0.007,-0.025,-0.814
-0.27,0.07,-0.40,1014.094,-0.047899,-0.020276,-0.003702,49.261543,-123.256348,81.60,1,5,0.579,-0.007,-0.024,-0.815
-0.27,0.07,-0.40,1014.094,-0.054672,-0.014604,-0.005547,49.261543,-123.256348,81.60,1,5,0.578,-0.008,-0.024,-0.816
-0.27,0.06,-0.32,1014.084,-0.052274,-0.023787,-0.007003,49.261543,-123.256348,81.60,1,5,0.577,-0.008,-0.024,-0.817
-0.27,0.06,-0.32,1014.084,-0.046934,-0.027301,-0.010148,49.261543,-123.256348,81.60,1,5,0.575,-0.008,-0.024,-0.818
GPS update failed, maybe no data in buffer? or wrong Pin connection (RX-TX)
-0.27,0.06,-0.36,1014.089,-0.050218,-0.033582,0.000872,49.261543,-123.256348,81.60,1,5,0.574,-0.008,-0.024,-0.818
-0.27,0.06,-0.36,1014.089,-0.056763,-0.032562,0.002910,49.261543,-123.256348,81.60,1,5,0.573,-0.008,-0.024,-0.819
-0.27,0.06,-0.29,1014.081,-0.052778,-0.026947,-0.007352,49.261543,-123.256348,81.60,1,5,0.572,-0.007,-0.024,-0.820
-0.27,0.06,-0.29,1014.081,-0.057214,-0.032484,-0.001811,49.261543,-123.256348,81.60,1,5,0.571,-0.007,-0.024,-0.821
-0.27,0.06,-0.27,1014.078,-0.045733,-0.035527,0.019745,49.261543,-123.256348,81.60,1,5,0.570,-0.007,-0.024,-0.821
-0.27,0.06,-0.27,1014.078,-0.055852,-0.032005,0.008632,49.261543,-123.256348,81.60,1,5,0.569,-0.007,-0.024,-0.822
-0.27,0.07,-0.20,1014.070,-0.054502,-0.027478,0.003286,49.261543,-123.256348,81.60,1,5,0.568,-0.007,-0.024,-0.823
-0.26,0.07,-0.20,1014.070,-0.048210,-0.026048,0.006744,49.261543,-123.256348,81.60,1,5,0.567,-0.007,-0.024,-0.824
-0.26,0.07,-0.24,1014.075,-0.050462,-0.021907,-0.009596,49.261543,-123.256348,81.60,1,5,0.565,-0.007,-0.024,-0.824
-0.26,0.06,-0.24,1014.075,-0.049171,-0.027454,-0.006604,49.261543,-123.256348,81.60,1,5,0.564,-0.007,-0.024,-0.825
-0.26,0.07,-0.20,1014.070,-0.046476,-0.026646,0.020304,49.261543,-123.256348,81.60,1,5,0.563,-0.007,-0.024,-0.826
-0.26,0.07,-0.20,1014.070,-0.061810,-0.028067,0.000576,49.261543,-123.256348,81.60,1,5,0.562,-0.007,-0.024,-0.827
-0.26,0.07,-0.23,1014.073,-0.055505,-0.027471,-0.001316,49.261543,-123.256348,81.60,1,5,0.561,-0.007,-0.024,-0.828
-0.25,0.07,-0.23,1014.073,-0.049987,-0.018741,0.013756,49.261543,-123.256348,81.60,1,5,0.559,-0.007,-0.024,-0.828
-0.25,0.07,-0.20,1014.070,-0.051857,-0.023193,-0.000212,49.261543,-123.256348,81.60,1,5,0.558,-0.007,-0.024,-0.829
-0.25,0.07,-0.20,1014.070,-0.056243,-0.037193,0.010470,49.261543,-123.256348,81.60,1,5,0.557,-0.007,-0.024,-0.830
-0.25,0.07,-0.32,1014.085,-0.054036,-0.032681,0.006889,49.261543,-123.256348,81.60,1,5,0.556,-0.008,-0.024,-0.831
-0.25,0.07,-0.32,1014.085,-0.062945,-0.032662,-0.003724,49.261543,-123.256348,81.60,1,5,0.555,-0.008,-0.024,-0.832
-0.25,0.07,-0.24,1014.075,-0.054932,-0.030389,0.002410,49.261543,-123.256348,81.60,1,5,0.554,-0.008,-0.024,-0.832
-0.25,0.07,-0.24,1014.075,-0.058375,-0.022841,-0.002870,49.261543,-123.256348,81.60,1,5,0.553,-0.008,-0.024,-0.833
-0.25,0.07,-0.28,1014.080,-0.059152,-0.021621,-0.007806,49.261543,-123.256348,81.60,1,5,0.552,-0.008,-0.024,-0.834
-0.25,0.07,-0.28,1014.080,-0.061492,-0.032787,0.005214,49.261543,-123.256348,81.60,1,5,0.550,-0.008,-0.024,-0.835
-0.24,0.07,-0.25,1014.076,-0.054673,-0.038847,0.009277,49.261543,-123.256348,81.60,1,5,0.549,-0.008,-0.024,-0.835
-0.24,0.07,-0.25,1014.076,-0.060041,-0.042659,0.007181,49.261543,-123.256348,81.60,1,5,0.548,-0.008,-0.024,-0.836
-0.24,0.08,-0.28,1014.080,-0.063548,-0.030825,0.009457,49.261543,-123.256348,81.60,1,5,0.547,-0.008,-0.023,-0.837
-0.24,0.08,-0.28,1014.080,-0.053849,-0.015908,0.001039,49.261543,-123.256348,81.60,1,5,0.546,-0.008,-0.023,-0.837
-0.24,0.07,-0.28,1014.080,-0.058161,-0.016257,-0.011409,49.261543,-123.256348,81.60,1,5,0.545,-0.009,-0.023,-0.838
-0.24,0.07,-0.28,1014.080,-0.066859,-0.024178,-0.006651,49.261543,-123.256348,81.60,1,5,0.544,-0.009,-0.023,-0.839
-0.24,0.07,-0.27,1014.078,-0.065133,-0.024617,0.000762,49.261543,-123.256348,81.60,1,5,0.542,-0.009,-0.024,-0.840
-0.24,0.07,-0.27,1014.078,-0.051622,-0.028202,0.008901,49.261543,-123.256348,81.60,1,5,0.541,-0.009,-0.023,-0.840
-0.24,0.07,-0.32,1014.085,-0.060094,-0.025840,-0.006253,49.261543,-123.256348,81.60,1,5,0.540,-0.009,-0.023,-0.841
-0.24,0.07,-0.32,1014.085,-0.063192,-0.011279,-0.007287,49.261543,-123.256348,81.60,1,5,0.539,-0.009,-0.023,-0.842
-0.24,0.07,-0.31,1014.083,-0.060689,-0.008822,-0.008870,49.261543,-123.256348,81.60,1,5,0.537,-0.009,-0.023,-0.843
-0.24,0.07,-0.31,1014.083,-0.064855,-0.017125,-0.010207,49.261543,-123.256348,81.60,1,5,0.536,-0.009,-0.023,-0.844
-0.24,0.06,-0.34,1014.086,-0.062088,-0.020878,-0.005825,49.261543,-123.256348,81.60,1,5,0.535,-0.009,-0.023,-0.845
-0.24,0.06,-0.34,1014.086,-0.055217,-0.024475,0.002969,49.261543,-123.256348,81.60,1,5,0.534,-0.009,-0.023,-0.845
-0.24,0.06,-0.35,1014.088,-0.048050,-0.023585,0.004434,49.261543,-123.256348,81.60,1,5,0.533,-0.009,-0.023,-0.846
-0.24,0.07,-0.35,1014.088,-0.057449,-0.026221,0.007117,49.261543,-123.256348,81.60,1,5,0.531,-0.008,-0.022,-0.847
-0.24,0.07,-0.30,1014.081,-0.050860,-0.026593,0.009601,49.261543,-123.256348,81.60,1,5,0.530,-0.008,-0.022,-0.848
-0.24,0.07,-0.30,1014.081,-0.057412,-0.031545,0.000447,49.261543,-123.256348,83.00,1,5,0.528,-0.008,-0.022,-0.849
-0.24,0.06,-0.23,1014.073,-0.066554,-0.017006,-0.013966,49.261543,-123.256348,83.00,1,5,0.527,-0.008,-0.022,-0.850
-0.24,0.06,-0.23,1014.073,-0.050254,-0.019436,-0.001923,49.261543,-123.256348,83.00,1,5,0.526,-0.009,-0.022,-0.850
-0.24,0.06,-0.29,1014.081,-0.058549,-0.028214,-0.002750,49.261543,-123.256348,83.00,1,5,0.524,-0.009,-0.022,-0.851
-0.24,0.06,-0.29,1014.081,-0.068984,-0.041353,0.000252,49.261543,-123.256348,83.00,1,5,0.523,-0.009,-0.022,-0.852
-0.24,0.06,-0.39,1014.093,-0.061763,-0.038864,0.016274,49.261543,-123.256348,83.00,1,5,0.521,-0.009,-0.022,-0.853
-0.24,0.06,-0.39,1014.093,-0.059153,-0.036483,-0.000258,49.261543,-123.256348,83.00,1,5,0.520,-0.009,-0.021,-0.854
-0.24,0.06,-0.31,1014.083,-0.060481,-0.021205,-0.011497,49.261543,-123.256348,83.00,1,5,0.519,-0.008,-0.021,-0.855
-0.24,0.06,-0.31,1014.083,-0.057910,-0.025234,0.007043,49.261543,-123.256348,83.00,1,5,0.517,-0.008,-0.021,-0.855
-0.24,0.06,-0.38,1014.091,-0.067386,-0.026996,-0.006102,49.261543,-123.256348,83.00,1,5,0.516,-0.009,-0.021,-0.856
-0.24,0.06,-0.38,1014.091,-0.062220,-0.038449,-0.001867,49.261543,-123.256348,83.00,1,5,0.515,-0.009,-0.021,-0.857
-0.24,0.06,-0.32,1014.085,-0.062361,-0.030476,-0.006419,49.261543,-123.256348,83.00,1,5,0.514,-0.009,-0.021,-0.858
-0.24,0.06,-0.32,1014.085,-0.052432,-0.029683,-0.008161,49.261543,-123.256348,83.00,1,5,0.513,-0.008,-0.020,-0.858
-0.24,0.05,-0.44,1014.098,-0.058504,-0.028302,-0.009031,49.261543,-123.256348,83.00,1,5,0.511,-0.008,-0.020,-0.859
-0.24,0.05,-0.44,1014.098,-0.056022,-0.021326,-0.006881,49.261543,-123.256348,83.00,1,5,0.510,-0.008,-0.020,-0.860
-0.24,0.05,-0.36,1014.090,-0.063058,-0.026373,0.004075,49.261543,-123.256348,83.00,1,5,0.509,-0.008,-0.020,-0.861
-0.25,0.05,-0.36,1014.090,-0.062210,-0.029785,-0.002340,49.261543,-123.256348,83.00,1,5,0.508,-0.009,-0.020,-0.861
-0.25,0.05,-0.31,1014.083,-0.063435,-0.031529,0.000904,49.261543,-123.256348,83.00,1,5,0.506,-0.009,-0.020,-0.862
-0.25,0.05,-0.31,1014.083,-0.062850,-0.027745,-0.002232,49.261543,-123.256348,83.00,1,5,0.505,-0.008,-0.020,-0.863
-0.24,0.05,-0.26,1014.077,-0.053705,-0.026758,0.004798,49.261543,-123.256348,83.00,1,5,0.504,-0.008,-0.020,-0.864
-0.24,0.05,-0.26,1014.077,-0.052106,-0.023078,0.005333,49.261543,-123.256348,83.00,1,5,0.502,-0.008,-0.019,-0.864
-0.24,0.05,-0.05,1014.052,-0.058502,-0.028839,0.006252,49.261543,-123.256348,83.00,1,5,0.501,-0.008,-0.019,-0.865
-0.24,0.05,-0.05,1014.052,-0.062403,-0.029460,0.004328,49.261543,-123.256348,83.00,1,5,0.500,-0.008,-0.019,-0.866
-0.23,0.06,-0.10,1014.058,-0.069577,-0.032496,0.007156,49.261543,-123.256348,83.00,1,5,0.498,-0.008,-0.019,-0.867
-0.23,0.06,-0.10,1014.058,-0.064599,-0.029032,0.004396,49.261543,-123.256348,83.00,1,5,0.497,-0.008,-0.019,-0.867
-0.23,0.06,-0.08,1014.055,-0.061527,-0.035989,-0.006049,49.261543,-123.256348,83.00,1,5,0.496,-0.009,-0.019,-0.868
-0.22,0.06,-0.08,1014.055,-0.061177,-0.033806,-0.001031,49.261543,-123.256348,83.00,1,5,0.495,-0.009,-0.018,-0.869
-0.22,0.06,-0.11,1014.059,-0.064919,-0.029422,-0.002487,49.261543,-123.256348,83.00,1,5,0.494,-0.008,-0.018,-0.870
-0.22,0.06,-0.11,1014.059,-0.058277,-0.029538,0.002404,49.261543,-123.256348,83.00,1,5,0.492,-0.008,-0.018,-0.870
-0.22,0.06,-0.14,1014.062,-0.065098,-0.030952,-0.006838,49.261543,-123.256348,83.00,1,5,0.491,-0.009,-0.017,-0.871
-0.22,0.06,-0.14,1014.062,-0.060491,-0.030656,-0.012931,49.261543,-123.256348,83.00,1,5,0.490,-0.009,-0.017,-0.872
-0.21,0.06,-0.15,1014.064,-0.054943,-0.026869,0.001107,49.261543,-123.256348,83.00,1,5,0.489,-0.009,-0.017,-0.872
-0.21,0.06,-0.15,1014.064,-0.066047,-0.032650,0.002533,49.261543,-123.256348,83.00,1,5,0.488,-0.009,-0.017,-0.873
-0.21,0.06,-0.16,1014.065,-0.065672,-0.032443,-0.000424,49.261543,-123.256348,83.00,1,5,0.486,-0.009,-0.017,-0.874
-0.21,0.06,-0.16,1014.065,-0.060807,-0.020633,-0.003583,49.261543,-123.256348,83.00,1,5,0.485,-0.009,-0.016,-0.874
-0.21,0.06,-0.16,1014.065,-0.056103,-0.023168,-0.000102,49.261543,-123.256348,83.00,1,5,0.484,-0.008,-0.016,-0.875
-0.20,0.06,-0.16,1014.065,-0.061228,-0.028847,-0.001375,49.261543,-123.256348,83.00,1,5,0.483,-0.008,-0.016,-0.876
-0.20,0.06,-0.16,1014.065,-0.058188,-0.027914,-0.006296,49.261543,-123.256348,83.00,1,5,0.481,-0.009,-0.015,-0.876
-0.20,0.06,-0.16,1014.065,-0.059531,-0.024218,-0.011313,49.261543,-123.256348,83.00,1,5,0.480,-0.009,-0.015,-0.877
-0.20,0.06,-0.11,1014.059,-0.069638,-0.028031,-0.002643,49.261543,-123.256340,83.00,1,5,0.479,-0.009,-0.014,-0.878
-0.20,0.05,-0.11,1014.059,-0.069735,-0.025818,-0.010339,49.261543,-123.256340,83.00,1,5,0.478,-0.008,-0.014,-0.878
-0.20,0.05,-0.18,1014.059,-0.062530,-0.013726,-0.007147,49.261543,-123.256340,83.00,1,5,0.477,-0.008,-0.014,-0.879
-0.20,0.05,-0.25,1014.075,-0.050975,-0.015495,-0.004722,49.261543,-123.256340,83.00,1,5,0.476,-0.008,-0.014,-0.880
-0.20,0.05,-0.25,1014.075,-0.050300,-0.020181,0.005876,49.261543,-123.256340,83.00,1,5,0.474,-0.007,-0.013,-0.880
-0.20,0.06,-0.33,1014.085,-0.060096,-0.029027,0.015880,49.261543,-123.256340,83.00,1,5,0.472,-0.007,-0.013,-0.881
-0.20,0.06,-0.33,1014.085,-0.072210,-0.033461,0.020398,49.261543,-123.256340,83.00,1,5,0.471,-0.007,-0.013,-0.882
-0.20,0.06,-0.29,1014.080,-0.076062,-0.034266,0.021405,49.261543,-123.256340,83.00,1,5,0.470,-0.007,-0.013,-0.883
-0.20,0.06,-0.29,1014.080,-0.069306,-0.036943,0.021988,49.261543,-123.256340,83.00,1,5,0.469,-0.007,-0.013,-0.883
-0.20,0.07,-0.25,1014.075,-0.069113,-0.027796,0.009764,49.261543,-123.256340,83.00,1,5,0.468,-0.007,-0.013,-0.884
-0.20,0.06,-0.25,1014.075,-0.067029,-0.015334,-0.004018,49.261543,-123.256340,83.00,1,5,0.466,-0.007,-0.012,-0.884
-0.20,0.06,-0.19,1014.069,-0.069396,-0.008244,-0.015176,49.261543,-123.256340,83.00,1,5,0.465,-0.008,-0.012,-0.885
-0.19,0.06,-0.19,1014.069,-0.068543,-0.008179,-0.009551,49.261543,-123.256340,83.00,1,5,0.464,-0.008,-0.012,-0.886
-0.19,0.06,-0.27,1014.079,-0.071636,-0.018774,-0.007049,49.261543,-123.256340,83.00,1,5,0.463,-0.008,-0.012,-0.886
-0.19,0.06,-0.27,1014.079,-0.062899,-0.016358,0.000168,49.261543,-123.256340,83.00,1,5,0.462,-0.007,-0.011,-0.887
-0.19,0.06,-0.27,1014.079,-0.063414,-0.013489,-0.008479,49.261543,-123.256340,83.00,1,5,0.461,-0.007,-0.011,-0.888
-0.19,0.06,-0.27,1014.079,-0.071929,-0.002265,-0.004628,49.261543,-123.256340,83.00,1,5,0.460,-0.007,-0.011,-0.888
-0.19,0.05,-0.26,1014.077,-0.072247,0.000497,-0.002045,49.261543,-123.256340,83.00,1,5,0.459,-0.007,-0.011,-0.889
-0.19,0.05,-0.26,1014.077,-0.064454,-0.002324,0.004327,49.261543,-123.256340,83.00,1,5,0.457,-0.007,-0.011,-0.889
-0.19,0.05,-0.26,1014.077,-0.064688,0.003298,0.002940,49.261543,-123.256340,83.00,1,5,0.456,-0.006,-0.011,-0.890
-0.19,0.05,-0.26,1014.077,-0.058884,-0.006934,-0.000253,49.261543,-123.256340,83.00,1,5,0.455,-0.006,-0.010,-0.890
-0.19,0.05,-0.21,1014.071,-0.062829,-0.004723,0.002166,49.261543,-123.256340,83.00,1,5,0.454,-0.006,-0.010,-0.891
-0.19,0.05,-0.21,1014.071,-0.074619,0.002249,-0.022346,49.261543,-123.256340,83.00,1,5,0.453,-0.007,-0.010,-0.892
-0.19,0.05,-0.21,1014.070,-0.070233,0.006057,-0.011175,49.261543,-123.256340,83.00,1,5,0.452,-0.007,-0.010,-0.892
-0.19,0.05,-0.21,1014.070,-0.062555,-0.007112,-0.005992,49.261543,-123.256340,83.00,1,5,0.451,-0.007,-0.010,-0.892
-0.19,0.05,-0.15,1014.064,-0.054943,-0.004871,0.000978,49.261543,-123.256340,83.00,1,5,0.450,-0.007,-0.010,-0.893
-0.19,0.05,-0.15,1014.064,-0.044939,0.000700,-0.005095,49.261543,-123.256340,83.00,1,5,0.449,-0.006,-0.010,-0.893
-0.19,0.05,-0.08,1014.056,-0.048765,0.002221,-0.002972,49.261543,-123.256340,83.00,1,5,0.448,-0.006,-0.010,-0.894
-0.18,0.05,-0.08,1014.056,-0.058411,-0.005715,-0.006707,49.261543,-123.256340,83.00,1,5,0.446,-0.006,-0.010,-0.895
-0.18,0.05,-0.20,1014.069,-0.064182,-0.009593,-0.010274,49.261543,-123.256340,83.00,1,5,0.445,-0.006,-0.010,-0.896
-0.18,0.04,-0.20,1014.069,-0.073127,-0.023398,-0.022144,49.261543,-123.256340,83.00,1,5,0.444,-0.006,-0.010,-0.896
-0.18,0.04,-0.26,1014.078,-0.071645,-0.029288,-0.012230,49.261543,-123.256340,83.00,1,5,0.443,-0.006,-0.010,-0.897
-0.18,0.04,-0.26,1014.078,-0.075243,-0.029114,-0.000022,49.261543,-123.256340,83.00,1,5,0.442,-0.006,-0.010,-0.897
-0.18,0.04,-0.22,1014.073,-0.080466,-0.031414,0.001176,49.261543,-123.256340,83.00,1,5,0.441,-0.005,-0.010,-0.897
-0.18,0.04,-0.22,1014.073,-0.066391,-0.033000,0.017677,49.261543,-123.256340,83.00,1,5,0.440,-0.004,-0.010,-0.898
-0.18,0.04,-0.28,1014.079,-0.055913,-0.024596,0.019809,49.261543,-123.256340,83.00,1,5,0.439,-0.003,-0.010,-0.898
-0.19,0.04,-0.28,1014.079,-0.067379,-0.018721,0.000747,49.261543,-123.256340,83.00,1,5,0.438,-0.003,-0.010,-0.899
-0.19,0.04,-0.28,1014.079,-0.063970,-0.022397,0.008124,49.261543,-123.256340,83.00,1,5,0.437,-0.003,-0.010,-0.900
-0.19,0.05,-0.28,1014.079,-0.060640,-0.023935,0.009398,49.261543,-123.256340,83.00,1,5,0.436,-0.003,-0.010,-0.900
-0.19,0.04,-0.35,1014.087,-0.071641,-0.030199,0.002187,49.261543,-123.256340,83.00,1,5,0.435,-0.003,-0.009,-0.900
-0.19,0.04,-0.35,1014.087,-0.069450,-0.030460,-0.005381,49.261543,-123.256340,83.00,1,5,0.434,-0.003,-0.009,-0.901
-0.19,0.04,-0.32,1014.084,-0.073542,-0.023712,-0.013868,49.261543,-123.256340,83.00,1,5,0.433,-0.003,-0.009,-0.901
-0.19,0.04,-0.32,1014.084,-0.075649,-0.027994,-0.008500,49.261543,-123.256340,83.00,1,5,0.432,-0.002,-0.009,-0.902
-0.19,0.04,-0.24,1014.074,-0.073258,-0.025088,0.001873,49.261543,-123.256340,83.00,1,5,0.431,-0.002,-0.009,-0.902
-0.19,0.04,-0.24,1014.074,-0.073394,-0.037505,-0.005324,49.261543,-123.256340,83.00,1,5,0.430,-0.001,-0.009,-0.903
-0.19,0.04,-0.22,1014.073,-0.080965,-0.029316,-0.005323,49.261543,-123.256340,83.00,1,5,0.429,-0.001,-0.009,-0.903
-0.19,0.03,-0.22,1014.073,-0.083038,-0.035275,-0.001625,49.261543,-123.256340,83.00,1,5,0.428,-0.000,-0.009,-0.904
-0.19,0.03,-0.35,1014.088,-0.085586,-0.042033,0.001109,49.261543,-123.256340,83.00,1,5,0.427,-0.000,-0.009,-0.904
-0.19,0.04,-0.35,1014.088,-0.092258,-0.050135,0.010644,49.261543,-123.256340,83.00,1,5,0.426,0.000,-0.009,-0.905
-0.20,0.03,-0.32,1014.084,-0.090869,-0.030619,-0.002931,49.261543,-123.256340,83.00,1,5,0.425,0.001,-0.009,-0.905
-0.20,0.03,-0.32,1014.084,-0.092101,-0.031968,0.007276,49.261543,-123.256340,83.00,1,5,0.425,0.001,-0.009,-0.905
-0.20,0.04,-0.17,1014.066,-0.089936,-0.035375,0.016612,49.261543,-123.256340,83.00,1,5,0.424,0.001,-0.009,-0.906
-0.19,0.04,-0.17,1014.066,-0.096775,-0.038199,0.010969,49.261543,-123.256340,83.00,1,5,0.423,0.001,-0.009,-0.906
-0.19,0.04,-0.20,1014.069,-0.085463,-0.036336,0.020090,49.261543,-123.256340,83.00,1,5,0.423,0.001,-0.009,-0.906
-0.19,0.05,-0.20,1014.069,-0.078462,-0.034956,0.015769,49.261543,-123.256340,83.00,1,5,0.423,0.001,-0.009,-0.906
-0.19,0.05,-0.28,1014.080,-0.074921,-0.028229,0.006707,49.261543,-123.256340,83.00,1,5,0.422,0.001,-0.009,-0.906
-0.19,0.04,-0.28,1014.080,-0.081666,-0.019507,-0.008287,49.261543,-123.256340,83.00,1,5,0.422,0.000,-0.009,-0.907
-0.19,0.04,-0.21,1014.071,-0.089899,-0.010039,-0.019087,49.261543,-123.256340,83.00,1,5,0.421,-0.001,-0.009,-0.907
-0.19,0.03,-0.21,1014.071,-0.077824,0.001509,-0.055668,49.261543,-123.256340,83.00,1,5,0.421,-0.002,-0.009,-0.907
-0.19,0.02,-0.27,1014.078,-0.072214,0.010137,-0.076350,49.261543,-123.256340,83.00,1,5,0.421,-0.004,-0.010,-0.907
-0.19,-0.00,-0.27,1014.078,-0.072094,0.005285,-0.106475,49.261543,-123.256340,83.00,1,5,0.421,-0.006,-0.012,-0.907
-0.20,-0.01,-0.23,1014.073,-0.067039,-0.007782,-0.074690,49.261543,-123.256340,83.00,1,5,0.420,-0.009,-0.014,-0.907
-0.20,-0.02,-0.23,1014.073,-0.080889,-0.025032,-0.031693,49.261543,-123.256340,83.00,1,5,0.420,-0.011,-0.017,-0.907
-0.20,-0.02,-0.23,1014.073,-0.095228,-0.029653,-0.022633,49.261543,-123.256340,83.00,1,5,0.419,-0.013,-0.018,-0.908
-0.20,-0.03,-0.23,1014.073,-0.110447,-0.034668,-0.027300,49.261543,-123.256340,83.00,1,5,0.418,-0.013,-0.019,-0.908
-0.20,-0.03,-0.20,1014.070,-0.120677,-0.034964,-0.028925,49.261543,-123.256340,83.00,1,5,0.416,-0.012,-0.019,-0.909
-0.20,-0.04,-0.20,1014.070,-0.115311,-0.023933,-0.022340,49.261543,-123.256340,83.00,1,5,0.415,-0.011,-0.018,-0.909
-0.20,-0.04,-0.14,1014.063,-0.104523,-0.019539,-0.002291,49.261543,-123.256340,83.00,1,5,0.415,-0.009,-0.018,-0.910
-0.20,-0.04,-0.14,1014.063,-0.099903,-0.010841,-0.006509,49.261543,-123.256340,83.00,1,5,0.414,-0.007,-0.018,-0.910
-0.20,-0.04,-0.28,1014.080,-0.105408,-0.005378,-0.003190,49.261543,-123.256340,83.00,1,5,0.413,-0.005,-0.017,-0.910
-0.20,-0.04,-0.28,1014.080,-0.129675,0.002820,-0.009986,49.261543,-123.256340,83.00,1,5,0.412,-0.004,-0.016,-0.911
-0.20,-0.04,-0.01,1014.046,-0.169555,0.005545,-0.019407,49.261543,-123.256340,83.00,1,5,0.411,-0.003,-0.016,-0.911
-0.20,-0.05,-0.01,1014.046,-0.181241,-0.008156,-0.021698,49.261543,-123.256340,83.00,1,5,0.411,-0.001,-0.015,-0.912
-0.20,-0.05,-0.02,1014.048,-0.179630,-0.001627,-0.021967,49.261543,-123.256340,83.00,1,5,0.410,0.000,-0.015,-0.912
-0.20,-0.05,-0.02,1014.048,-0.170441,-0.011278,0.000848,49.261543,-123.256340,83.00,1,5,0.410,0.003,-0.015,-0.912
-0.19,-0.04,-0.08,1014.055,-0.161433,-0.021343,0.024656,49.261543,-123.256340,83.00,1,5,0.410,0.006,-0.015,-0.912
-0.19,-0.04,-0.08,1014.055,-0.153633,-0.009342,0.025129,49.261543,-123.256340,83.00,1,5,0.410,0.008,-0.014,-0.912
-0.19,-0.04,-0.20,1014.070,-0.133082,0.000388,0.009199,49.261543,-123.256340,83.00,1,5,0.410,0.011,-0.013,-0.912
-0.19,-0.04,-0.20,1014.070,-0.124230,0.011489,0.007122,49.261543,-123.256348,83.00,1,5,0.409,0.012,-0.012,-0.912
-0.20,-0.04,-0.17,1014.067,-0.136927,0.021937,-0.012806,49.261543,-123.256348,83.00,1,5,0.408,0.013,-0.012,-0.913
-0.20,-0.04,-0.17,1014.067,-0.145436,0.011786,0.002358,49.261543,-123.256348,83.00,1,5,0.408,0.013,-0.012,-0.913
-0.20,-0.03,-0.16,1014.065,-0.150262,-0.004591,0.014099,49.261543,-123.256348,83.00,1,5,0.407,0.013,-0.012,-0.913
-0.20,-0.03,-0.16,1014.065,-0.153823,-0.003024,0.015698,49.261543,-123.256348,83.00,1,5,0.405,0.013,-0.012,-0.914
-0.19,-0.03,-0.05,1014.052,-0.151400,-0.026071,0.019916,49.261543,-123.256348,83.00,1,5,0.404,0.013,-0.011,-0.915
-0.19,-0.02,-0.05,1014.052,-0.161503,-0.029750,0.022815,49.261543,-123.256348,83.00,1,5,0.403,0.013,-0.011,-0.915
-0.19,-0.02,-0.13,1014.062,-0.159470,-0.018319,0.003807,49.261543,-123.256348,83.00,1,5,0.402,0.013,-0.010,-0.916
-0.19,-0.02,-0.13,1014.062,-0.162684,0.003224,-0.012410,49.261543,-123.256348,83.00,1,5,0.402,0.013,-0.009,-0.916
-0.19,-0.03,-0.13,1014.062,-0.149195,0.024571,-0.026148,49.261543,-123.256348,83.00,1,5,0.401,0.012,-0.009,-0.916
-0.19,-0.03,-0.13,1014.062,-0.153493,0.030185,-0.021331,49.261543,-123.256348,83.00,1,5,0.401,0.011,-0.009,-0.916
-0.19,-0.03,-0.13,1014.062,-0.156764,0.025361,0.001210,49.261543,-123.256348,83.00,1,5,0.400,0.010,-0.010,-0.916
-0.19,-0.03,-0.13,1014.062,-0.166780,0.024457,0.022368,49.261543,-123.256348,83.00,1,5,0.399,0.009,-0.011,-0.917
-0.19,-0.02,-0.12,1014.060,-0.185134,0.018904,0.039794,49.261543,-123.256348,83.00,1,5,0.397,0.008,-0.011,-0.918
-0.19,-0.01,-0.12,1014.060,-0.180433,0.003203,0.046192,49.261543,-123.256348,83.00,1,5,0.396,0.008,-0.011,-0.918
-0.19,-0.00,-0.07,1014.054,-0.182763,-0.005941,0.026902,49.261543,-123.256348,83.00,1,5,0.394,0.007,-0.010,-0.919
-0.19,0.00,-0.07,1014.054,-0.177546,-0.002301,0.025677,49.261543,-123.256348,83.00,1,5,0.392,0.007,-0.010,-0.920
-0.18,0.01,-0.05,1014.052,-0.178972,-0.000919,0.027159,49.261543,-123.256348,83.00,1,5,0.391,0.006,-0.010,-0.920
-0.18,0.01,-0.05,1014.052,-0.164921,-0.007229,0.028960,49.261543,-123.256348,83.00,1,5,0.390,0.004,-0.010,-0.921
-0.18,0.02,0.06,1014.039,-0.149336,-0.008752,0.016618,49.261543,-123.256348,83.00,1,5,0.390,0.002,-0.010,-0.921
-0.17,0.02,0.06,1014.039,-0.125814,-0.015308,0.012910,49.261543,-123.256348,83.00,1,5,0.390,-0.000,-0.011,-0.921
-0.17,0.02,0.11,1014.032,-0.109438,-0.038619,0.019388,49.261543,-123.256348,83.00,1,5,0.390,-0.002,-0.011,-0.921
-0.17,0.04,0.11,1014.032,-0.106233,-0.063159,0.058712,49.261543,-123.256348,83.00,1,5,0.389,-0.004,-0.012,-0.921
-0.16,0.04,0.08,1014.036,-0.119415,-0.065515,0.029467,49.261543,-123.256348,83.00,1,5,0.389,-0.005,-0.011,-0.921
-0.16,0.04,0.08,1014.036,-0.121478,-0.046087,-0.007632,49.261543,-123.256348,83.00,1,5,0.388,-0.006,-0.010,-0.921
-0.15,0.04,0.06,1014.039,-0.115986,-0.022484,-0.042258,49.261543,-123.256348,83.00,1,5,0.389,-0.006,-0.010,-0.921
-0.15,0.04,0.06,1014.039,-0.108639,-0.052839,-0.015124,49.261543,-123.256348,83.00,1,5,0.390,-0.006,-0.012,-0.921
-0.15,0.04,0.06,1014.038,-0.068507,-0.083629,0.046742,49.261543,-123.256348,83.00,1,5,0.391,-0.005,-0.014,-0.920
-0.14,0.06,0.06,1014.038,-0.033181,-0.086586,0.082853,49.261543,-123.256348,83.00,1,5,0.393,-0.004,-0.014,-0.919
-0.14,0.07,0.05,1014.040,-0.000739,-0.058181,0.040161,49.261543,-123.256348,83.00,1,5,0.395,-0.002,-0.014,-0.918
-0.13,0.07,0.05,1014.040,0.017205,-0.028443,-0.007458,49.261543,-123.256348,83.00,1,5,0.396,0.000,-0.013,-0.918
-0.13,0.06,0.02,1014.043,0.017709,-0.026348,-0.028990,49.261543,-123.256348,83.00,1,5,0.396,0.002,-0.013,-0.918
-0.13,0.06,0.02,1014.043,0.011169,-0.025356,-0.017061,49.261543,-123.256348,83.00,1,5,0.396,0.003,-0.013,-0.918
-0.13,0.06,-0.01,1014.047,0.005981,-0.017531,0.002020,49.261543,-123.256348,83.00,1,5,0.396,0.002,-0.014,-0.918
-0.12,0.06,-0.01,1014.047,-0.018026,-0.007542,-0.038578,49.261543,-123.256348,83.00,1,5,0.395,0.001,-0.014,-0.918
-0.12,0.05,0.02,1014.043,-0.029411,-0.010710,-0.068736,49.261543,-123.256348,83.00,1,5,0.395,-0.001,-0.015,-0.919
-0.12,0.04,0.02,1014.043,-0.043633,-0.044602,-0.031258,49.261543,-123.256348,83.00,1,5,0.394,-0.004,-0.017,-0.919
-0.12,0.04,-0.12,1014.060,-0.042485,-0.084130,-0.006005,49.261543,-123.256348,83.00,1,5,0.394,-0.005,-0.019,-0.919
-0.12,0.05,-0.12,1014.060,-0.005996,-0.101691,0.029197,49.261543,-123.256348,83.00,1,5,0.394,-0.005,-0.021,-0.919
-0.11,0.06,-0.14,1014.063,0.016936,-0.102007,0.062614,49.261543,-123.256340,83.00,1,5,0.394,-0.004,-0.023,-0.919
-0.11,0.07,-0.14,1014.063,0.003760,-0.082359,0.058676,49.261543,-123.256340,83.00,1,5,0.393,-0.001,-0.022,-0.919
-0.11,0.07,-0.19,1014.068,-0.026713,-0.043408,0.007100,49.261543,-123.256340,83.00,1,5,0.392,0.002,-0.021,-0.920
-0.11,0.06,-0.19,1014.068,-0.034363,-0.017073,-0.027454,49.261543,-123.256340,83.00,1,5,0.391,0.004,-0.021,-0.920
-0.11,0.05,-0.24,1014.068,-0.048357,0.003429,-0.045882,49.261543,-123.256340,83.00,1,5,0.390,0.004,-0.021,-0.920
-0.12,0.04,-0.24,1014.075,-0.082193,-0.010830,-0.047990,49.261543,-123.256340,83.00,1,5,0.389,0.003,-0.022,-0.921
-0.12,0.03,-0.25,1014.076,-0.114075,-0.029728,-0.048261,49.261543,-123.256340,83.00,1,5,0.387,0.003,-0.023,-0.922
-0.12,0.03,-0.25,1014.076,-0.120430,-0.054358,-0.046575,49.261543,-123.256340,83.00,1,5,0.385,0.003,-0.024,-0.923
-0.12,0.02,-0.25,1014.076,-0.116961,-0.073380,-0.005477,49.261543,-123.256340,83.00,1,5,0.382,0.003,-0.025,-0.924
-0.12,0.03,-0.17,1014.066,-0.126556,-0.083117,0.026330,49.261543,-123.256340,83.00,1,5,0.380,0.005,-0.024,-0.925
-0.12,0.03,-0.17,1014.066,-0.139593,-0.079762,0.004315,49.261543,-123.256340,83.00,1,5,0.378,0.006,-0.023,-0.925
-0.12,0.03,-0.16,1014.065,-0.123156,-0.064156,-0.017142,49.261543,-123.256340,83.00,1,5,0.377,0.006,-0.021,-0.926
-0.12,0.02,-0.16,1014.065,-0.112140,-0.059543,-0.030253,49.261543,-123.256340,83.00,1,5,0.376,0.006,-0.019,-0.926
-0.12,0.01,-0.13,1014.061,-0.128028,-0.046103,-0.052561,49.261543,-123.256340,83.00,1,5,0.375,0.004,-0.018,-0.927
-0.12,0.01,-0.13,1014.061,-0.133244,-0.043569,-0.033390,49.261543,-123.256340,83.00,1,5,0.375,0.003,-0.017,-0.927
-0.12,0.01,0.03,1014.042,-0.134554,-0.036039,-0.002414,49.261543,-123.256340,83.00,1,5,0.374,0.002,-0.017,-0.927
-0.12,0.01,0.03,1014.042,-0.127647,-0.034935,0.005587,49.261543,-123.256340,83.00,1,5,0.372,0.002,-0.016,-0.928
-0.11,0.01,0.02,1014.043,-0.125444,-0.019375,0.000631,49.261543,-123.256340,83.00,1,5,0.370,0.001,-0.014,-0.929
-0.11,0.01,0.02,1014.043,-0.126598,-0.014044,0.010854,49.261543,-123.256340,83.00,1,5,0.367,0.001,-0.013,-0.930
-0.11,0.01,-0.02,1014.048,-0.128292,-0.012445,0.004442,49.261543,-123.256340,83.00,1,5,0.363,0.000,-0.012,-0.932
-0.11,0.02,-0.02,1014.048,-0.133887,-0.027413,0.025760,49.261543,-123.256340,83.00,1,5,0.360,-0.002,-0.012,-0.933
-0.11,0.02,0.01,1014.045,-0.117120,-0.044237,0.035538,49.261543,-123.256340,83.00,1,5,0.357,-0.004,-0.012,-0.934
-0.10,0.03,0.01,1014.045,-0.109290,-0.036168,0.022240,49.261543,-123.256340,83.00,1,5,0.355,-0.008,-0.012,-0.935
-0.10,0.03,-0.02,1014.048,-0.090380,-0.011127,0.000657,49.261543,-123.256340,83.00,1,5,0.353,-0.011,-0.011,-0.936
-0.10,0.03,-0.02,1014.048,-0.082555,0.026336,-0.017808,49.261543,-123.256340,83.00,1,5,0.351,-0.014,-0.011,-0.936
-0.10,0.03,0.10,1014.033,-0.082040,0.049136,-0.007201,49.261543,-123.256340,83.00,1,5,0.350,-0.015,-0.011,-0.937
-0.09,0.03,0.10,1014.033,-0.092844,0.042059,0.016087,49.261543,-123.256340,82.00,1,5,0.347,-0.016,-0.012,-0.938
-0.09,0.04,0.16,1014.027,-0.112084,0.016320,0.024903,49.261543,-123.256340,82.00,1,5,0.344,-0.016,-0.013,-0.939
-0.09,0.05,0.16,1014.027,-0.112571,-0.035330,0.046433,49.261543,-123.256340,82.00,1,5,0.341,-0.015,-0.014,-0.940
-0.08,0.06,0.08,1014.037,-0.087501,-0.074197,0.099314,49.261543,-123.256340,82.00,1,5,0.339,-0.012,-0.016,-0.941
-0.08,0.09,0.08,1014.037,-0.050518,-0.063845,0.131608,49.261543,-123.256340,82.00,1,5,0.338,-0.007,-0.017,-0.941
-0.07,0.12,0.14,1014.029,0.035608,-0.067752,0.157295,49.261543,-123.256340,82.00,1,5,0.337,-0.002,-0.017,-0.941
-0.07,0.13,0.14,1014.029,0.043798,-0.012549,0.104482,49.261543,-123.256340,82.00,1,5,0.336,0.002,-0.016,-0.942
-0.06,0.13,0.09,1014.035,0.001374,0.051867,-0.021826,49.261543,-123.256340,82.00,1,5,0.333,0.004,-0.013,-0.943
-0.06,0.12,0.09,1014.035,-0.084421,0.095433,-0.075405,49.261543,-123.256340,82.00,1,5,0.329,0.004,-0.013,-0.944
-0.06,0.11,0.08,1014.037,-0.118920,0.054873,-0.057922,49.261543,-123.256340,82.00,1,5,0.327,0.002,-0.014,-0.945
-0.05,0.11,0.08,1014.037,-0.120160,0.001184,0.014503,49.261543,-123.256340,82.00,1,5,0.327,0.000,-0.017,-0.945
-0.05,0.13,0.08,1014.037,-0.083971,-0.042224,0.063215,49.261543,-123.256340,82.00,1,5,0.328,-0.002,-0.019,-0.945
-0.04,0.14,0.08,1014.037,-0.055717,-0.038873,0.051898,49.261543,-123.256340,82.00,1,5,0.328,-0.002,-0.019,-0.944
-0.04,0.14,0.03,1014.042,-0.060239,-0.011352,0.009091,49.261543,-123.256340,82.00,1,5,0.328,-0.001,-0.017,-0.945
-0.04,0.13,0.03,1014.042,-0.058340,0.018265,-0.045048,49.261543,-123.256340,82.00,1,5,0.328,0.001,-0.016,-0.945
-0.03,0.12,0.10,1014.033,-0.056839,0.024466,-0.047992,49.261543,-123.256340,82.00,1,5,0.327,0.003,-0.014,-0.945
-0.03,0.12,0.10,1014.033,-0.048127,0.006808,-0.018205,49.261543,-123.256340,82.00,1,5,0.328,0.004,-0.012,-0.945
-0.02,0.11,0.16,1014.027,-0.060528,0.033384,-0.043166,49.261543,-123.256340,82.00,1,5,0.328,0.004,-0.009,-0.945
-0.02,0.10,0.16,1014.027,-0.069975,0.083709,-0.112154,49.261543,-123.256340,82.00,1,5,0.329,0.003,-0.005,-0.944
-0.02,0.07,0.20,1014.022,-0.054194,0.107732,-0.150996,49.261543,-123.256340,82.00,1,5,0.329,0.002,-0.003,-0.944
-0.01,0.05,0.20,1014.022,-0.061176,0.095645,-0.128050,49.261543,-123.256340,82.00,1,5,0.328,-0.000,-0.002,-0.945
-0.01,0.04,0.22,1014.019,-0.090092,0.049499,-0.070201,49.261543,-123.256340,82.00,1,5,0.327,-0.002,-0.002,-0.945
-0.00,0.03,0.22,1014.019,-0.119943,0.023121,-0.048361,49.261543,-123.256340,82.00,1,5,0.324,-0.003,-0.001,-0.946
-0.00,0.02,0.22,1014.019,-0.142457,0.029308,-0.069142,49.261543,-123.256340,82.00,1,5,0.322,-0.004,0.000,-0.947
0.00,0.01,0.22,1014.019,-0.143005,0.038364,-0.078843,49.261543,-123.256340,82.00,1,5,0.321,-0.004,0.002,-0.947
0.01,-0.00,0.18,1014.024,-0.146634,0.028353,-0.072151,49.261543,-123.256340,82.00,1,5,0.320,-0.004,0.004,-0.947
0.01,-0.01,0.18,1014.024,-0.144818,0.046347,-0.080166,49.261543,-123.256340,82.00,1,5,0.320,-0.005,0.005,-0.947
0.01,-0.03,0.14,1014.029,-0.138206,0.068959,-0.079786,49.261543,-123.256340,82.00,1,5,0.320,-0.006,0.006,-0.947
0.01,-0.04,0.14,1014.029,-0.132496,0.076014,-0.066832,49.261543,-123.256340,82.00,1,5,0.320,-0.009,0.006,-0.947
0.01,-0.04,0.17,1014.025,-0.142455,0.062827,-0.042987,49.261543,-123.256340,82.00,1,5,0.319,-0.011,0.006,-0.948
0.01,-0.04,0.17,1014.025,-0.156212,0.045710,0.001410,49.261543,-123.256340,82.00,1,5,0.318,-0.013,0.005,-0.948
0.01,-0.04,0.06,1014.039,-0.140959,0.018699,0.015605,49.261543,-123.256340,82.00,1,5,0.316,-0.014,0.004,-0.949
0.01,-0.03,0.06,1014.039,-0.128090,-0.004325,0.050132,49.261543,-123.256340,82.00,1,5,0.314,-0.015,0.003,-0.949
0.01,-0.02,-0.01,1014.047,-0.131314,-0.018551,0.054789,49.261543,-123.256340,82.00,1,5,0.312,-0.016,0.002,-0.950
0.01,-0.01,-0.01,1014.047,-0.158759,-0.001436,0.045359,49.261543,-123.256340,82.00,1,5,0.311,-0.017,0.002,-0.950
0.01,-0.01,-0.04,1014.050,-0.171562,0.003475,0.058247,49.261543,-123.256340,82.00,1,5,0.310,-0.020,0.002,-0.951
0.01,0.00,-0.04,1014.050,-0.149538,0.000749,0.055526,49.261543,-123.256340,82.00,1,5,0.310,-0.022,0.001,-0.951
0.01,0.02,-0.08,1014.055,-0.096305,-0.012758,0.069403,49.261543,-123.256340,82.00,1,5,0.310,-0.024,-0.001,-0.950
0.01,0.03,-0.08,1014.055,-0.017536,-0.023691,0.091075,49.261543,-123.256340,82.00,1,5,0.312,-0.026,-0.003,-0.950
0.01,0.05,-0.07,1014.054,0.019308,-0.038036,0.097549,49.261543,-123.256340,82.00,1,5,0.311,-0.027,-0.004,-0.950
0.01,0.05,-0.07,1014.054,0.000570,-0.015514,0.042406,49.261543,-123.256340,82.00,1,5,0.310,-0.029,-0.006,-0.950
0.01,0.06,-0.08,1014.055,-0.020622,-0.021188,0.046337,49.261543,-123.256340,82.00,1,5,0.308,-0.029,-0.008,-0.951
0.01,0.07,-0.08,1014.055,-0.006366,-0.054953,0.078927,49.261543,-123.256340,82.00,1,5,0.307,-0.029,-0.011,-0.951
0.01,0.09,-0.07,1014.054,0.013664,-0.090112,0.106529,49.261543,-123.256340,82.00,1,5,0.307,-0.028,-0.013,-0.951
0.01,0.10,-0.07,1014.054,0.019351,-0.058430,0.073110,49.261543,-123.256340,82.00,1,5,0.306,-0.027,-0.014,-0.951
0.01,0.11,0.00,1014.045,0.040411,-0.036436,0.035776,49.261543,-123.256340,82.00,1,5,0.306,-0.025,-0.014,-0.952
0.01,0.12,0.00,1014.045,0.002748,-0.028657,0.034978,49.261543,-123.256340,82.00,1,5,0.305,-0.023,-0.014,-0.952
0.01,0.11,-0.13,1014.062,-0.025676,-0.046627,-0.015168,49.261543,-123.256340,82.00,1,5,0.304,-0.021,-0.014,-0.952
0.01,0.11,-0.13,1014.062,-0.044644,-0.049601,-0.009463,49.261543,-123.256340,82.00,1,5,0.303,-0.019,-0.015,-0.953
0.01,0.11,-0.12,1014.060,-0.065700,-0.068266,0.018111,49.261543,-123.256340,82.00,1,5,0.303,-0.016,-0.016,-0.953
0.01,0.12,-0.12,1014.060,-0.088665,-0.072223,0.031548,49.261543,-123.256340,82.00,1,5,0.303,-0.013,-0.015,-0.953
0.01,0.11,-0.12,1014.060,-0.090048,-0.059245,-0.012269,49.261543,-123.256340,82.00,1,5,0.304,-0.010,-0.014,-0.953
0.01,0.10,-0.12,1014.060,-0.085323,-0.027090,-0.086851,49.261543,-123.256340,82.00,1,5,0.305,-0.008,-0.011,-0.952
0.01,0.07,-0.05,1014.052,-0.091432,0.011114,-0.155419,49.261543,-123.256340,82.00,1,5,0.305,-0.008,-0.009,-0.952
0.01,0.04,-0.05,1014.052,-0.116895,0.024289,-0.165649,49.261543,-123.256340,82.00,1,5,0.306,-0.009,-0.008,-0.952
0.01,0.02,0.09,1014.035,-0.140305,0.000698,-0.152920,49.261543,-123.256340,82.00,1,5,0.306,-0.011,-0.008,-0.952
0.02,-0.00,0.09,1014.035,-0.132841,-0.027747,-0.113793,49.261543,-123.256340,82.00,1,5,0.307,-0.012,-0.008,-0.952
0.02,-0.01,0.08,1014.036,-0.132534,-0.060920,-0.065563,49.261543,-123.256340,82.00,1,5,0.307,-0.014,-0.007,-0.952
0.02,-0.02,0.08,1014.036,-0.133000,-0.058115,-0.057653,49.261543,-123.256340,82.00,1,5,0.306,-0.014,-0.005,-0.952
0.02,-0.03,0.14,1014.029,-0.132854,-0.056999,-0.072517,49.261543,-123.256340,82.00,1,5,0.306,-0.015,-0.004,-0.952
0.02,-0.05,0.14,1014.029,-0.111622,-0.048410,-0.071529,49.261543,-123.256340,82.00,1,5,0.306,-0.015,-0.002,-0.952
0.02,-0.06,0.09,1014.035,-0.103256,-0.018074,-0.060906,49.261543,-123.256340,82.00,1,5,0.306,-0.017,-0.001,-0.952
0.02,-0.06,0.09,1014.035,-0.123478,0.009949,-0.047050,49.261543,-123.256340,82.00,1,5,0.306,-0.020,-0.001,-0.952
0.02,-0.07,0.09,1014.035,-0.139375,0.033054,-0.030847,49.261543,-123.256340,82.00,1,5,0.306,-0.023,-0.001,-0.952
0.02,-0.07,0.09,1014.035,-0.138336,0.038102,-0.004218,49.261543,-123.256340,82.00,1,5,0.305,-0.026,-0.002,-0.952
0.02,-0.06,0.06,1014.039,-0.113202,-0.004807,0.059974,49.261543,-123.256340,82.00,1,5,0.304,-0.029,-0.004,-0.952
0.02,-0.04,0.06,1014.039,-0.118951,-0.041463,0.132062,49.261543,-123.256340,82.00,1,5,0.303,-0.030,-0.006,-0.952
0.02,-0.01,-0.02,1014.048,-0.108819,-0.043923,0.172179,49.261543,-123.256340,82.00,1,5,0.303,-0.031,-0.007,-0.952
0.02,0.03,-0.02,1014.048,-0.085119,-0.023235,0.188872,49.261543,-123.256340,82.00,1,5,0.303,-0.030,-0.007,-0.952
0.02,0.05,0.01,1014.045,-0.087720,0.033898,0.139881,49.261543,-123.256340,82.00,1,5,0.303,-0.029,-0.006,-0.952
0.02,0.06,0.01,1014.045,-0.121118,0.101633,0.082110,49.261543,-123.256340,82.00,1,5,0.302,-0.026,-0.005,-0.953
0.02,0.08,-0.01,1014.047,-0.138755,0.111119,0.071486,49.261543,-123.256340,82.00,1,5,0.300,-0.024,-0.005,-0.954
0.02,0.09,-0.01,1014.047,-0.140071,0.072866,0.091812,49.261543,-123.256340,82.00,1,5,0.297,-0.022,-0.006,-0.955
0.02,0.12,0.10,1014.034,-0.104263,0.044793,0.131745,49.261543,-123.256340,82.00,1,5,0.295,-0.019,-0.009,-0.955
0.03,0.15,0.10,1014.034,-0.053263,0.024315,0.172751,49.261543,-123.256340,82.00,1,5,0.294,-0.016,-0.010,-0.956
0.03,0.17,0.13,1014.030,-0.028792,0.037241,0.131538,49.261543,-123.256340,82.00,1,5,0.291,-0.014,-0.010,-0.957
0.03,0.17,0.13,1014.030,-0.075289,0.108335,-0.000383,49.261543,-123.256340,82.00,1,5,0.288,-0.013,-0.009,-0.958
0.04,0.16,0.21,1014.020,-0.126201,0.137016,-0.041402,49.261543,-123.256340,82.00,1,5,0.285,-0.014,-0.009,-0.958
0.05,0.16,0.21,1014.020,-0.151845,0.123381,-0.000602,49.261547,-123.256332,82.00,1,5,0.283,-0.016,-0.012,-0.959
0.05,0.17,0.25,1014.015,-0.144458,0.038667,0.053578,49.261547,-123.256332,82.00,1,5,0.284,-0.019,-0.016,-0.959
0.06,0.19,0.25,1014.015,-0.116683,-0.034861,0.091491,49.261547,-123.256332,82.00,1,5,0.284,-0.020,-0.017,-0.958
0.06,0.20,0.21,1014.020,-0.096807,-0.045566,0.032715,49.261547,-123.256332,82.00,1,5,0.285,-0.019,-0.017,-0.958
0.07,0.19,0.21,1014.020,-0.078207,0.002351,-0.047551,49.261547,-123.256332,82.00,1,5,0.286,-0.017,-0.015,-0.958
0.07,0.17,0.14,1014.029,-0.084649,0.051940,-0.121540,49.261547,-123.256332,82.00,1,5,0.287,-0.016,-0.013,-0.958
0.08,0.14,0.14,1014.029,-0.065896,0.088708,-0.154123,49.261547,-123.256332,82.00,1,5,0.288,-0.015,-0.012,-0.957
0.08,0.12,0.20,1014.022,-0.048216,0.088230,-0.121276,49.261547,-123.256332,82.00,1,5,0.290,-0.016,-0.011,-0.957
0.08,0.10,0.20,1014.022,-0.037080,0.082857,-0.125825,49.261547,-123.256332,82.00,1,5,0.291,-0.019,-0.010,-0.957
0.09,0.08,0.17,1014.025,-0.040288,0.074409,-0.158038,49.261547,-123.256332,82.00,1,5,0.291,-0.023,-0.007,-0.956
0.09,0.05,0.17,1014.025,-0.073485,0.069709,-0.164168,49.261547,-123.256332,82.00,1,5,0.290,-0.026,-0.005,-0.957
0.09,0.02,0.14,1014.029,-0.101055,0.060878,-0.156078,49.261547,-123.256332,82.00,1,5,0.289,-0.030,-0.004,-0.957
0.09,-0.00,0.14,1014.029,-0.127234,0.059750,-0.142245,49.261547,-123.256332,82.00,1,5,0.288,-0.033,-0.002,-0.957
0.09,-0.02,0.09,1014.035,-0.137461,0.059978,-0.123763,49.261547,-123.256332,82.00,1,5,0.288,-0.037,-0.001,-0.957
0.09,-0.04,0.09,1014.035,-0.143980,0.060578,-0.067734,49.261547,-123.256332,82.00,1,5,0.289,-0.041,0.000,-0.956
0.09,-0.04,0.09,1014.035,-0.133889,0.059421,-0.036100,49.261547,-123.256332,82.00,1,5,0.291,-0.044,0.002,-0.956
0.09,-0.05,0.09,1014.035,-0.093719,0.052559,-0.033718,49.261547,-123.256332,82.00,1,5,0.293,-0.045,0.003,-0.955
0.09,-0.05,0.01,1014.045,-0.028846,0.015113,0.012507,49.261547,-123.256332,82.00,1,5,0.295,-0.046,0.003,-0.954
0.09,-0.03,0.01,1014.045,0.036789,-0.045583,0.115823,49.261547,-123.256332,82.00,1,5,0.296,-0.045,0.002,-0.954
0.08,-0.01,0.01,1014.045,0.045495,-0.048169,0.124950,49.261547,-123.256332,82.00,1,5,0.297,-0.046,0.003,-0.954
0.08,-0.00,-0.07,1014.055,0.012264,-0.001112,0.028541,49.261547,-123.256332,82.00,1,5,0.299,-0.048,0.005,-0.953
0.08,-0.00,-0.07,1014.055,0.025047,0.011404,0.006449,49.261547,-123.256332,82.00,1,5,0.301,-0.052,0.004,-0.952
0.08,0.00,-0.14,1014.063,0.047821,-0.020778,0.021138,49.261547,-123.256332,82.00,1,5,0.304,-0.055,0.003,-0.951
0.07,0.00,-0.14,1014.063,-0.025711,-0.025659,0.024893,49.261547,-123.256332,82.00,1,5,0.305,-0.056,0.001,-0.951
0.07,0.00,-0.10,1014.058,-0.020386,-0.028268,-0.009192,49.261547,-123.256332,82.00,1,5,0.305,-0.054,-0.002,-0.951
0.07,0.01,-0.10,1014.058,0.051265,-0.034451,0.044077,49.261547,-123.256332,82.00,1,5,0.306,-0.049,-0.006,-0.951
0.07,0.03,-0.17,1014.066,0.107993,-0.050977,0.121943,49.261547,-123.256332,82.00,1,5,0.305,-0.042,-0.010,-0.952
0.06,0.05,-0.17,1014.066,0.124765,-0.077310,0.126577,49.261547,-123.256332,82.00,1,5,0.302,-0.035,-0.013,-0.953
0.06,0.07,-0.18,1014.067,0.097925,-0.042568,0.123881,49.261547,-123.256332,82.00,1,5,0.299,-0.030,-0.016,-0.954
0.06,0.08,-0.18,1014.067,0.056263,-0.015434,0.077919,49.261547,-123.256332,82.00,1,5,0.297,-0.027,-0.017,-0.954
0.06,0.08,-0.18,1014.067,0.017621,-0.015750,0.003263,49.261547,-123.256332,82.00,1,5,0.296,-0.026,-0.018,-0.955
0.05,0.07,-0.18,1014.067,-0.033112,-0.049132,-0.030581,49.261547,-123.256332,82.00,1,5,0.295,-0.025,-0.020,-0.955
0.05,0.08,-0.15,1014.064,-0.090486,-0.132510,0.026638,49.261547,-123.256332,82.00,1,5,0.294,-0.024,-0.023,-0.955
0.05,0.09,-0.15,1014.064,-0.152405,-0.160727,0.096894,49.261547,-123.256332,82.00,1,5,0.294,-0.020,-0.025,-0.955
0.05,0.10,-0.10,1014.057,-0.175167,-0.128919,0.065646,49.261547,-123.256332,82.00,1,5,0.298,-0.016,-0.025,-0.954
0.05,0.10,-0.10,1014.057,-0.102161,-0.065426,-0.017437,49.261547,-123.256332,82.00,1,5,0.304,-0.013,-0.023,-0.952
0.05,0.08,-0.09,1014.057,-0.017907,0.001098,-0.085146,49.261547,-123.256332,82.00,1,5,0.310,-0.012,-0.020,-0.951
0.05,0.06,-0.09,1014.057,0.006988,0.056169,-0.152317,49.261547,-123.256332,82.00,1,5,0.313,-0.013,-0.017,-0.949
0.05,0.02,-0.12,1014.060,-0.028802,0.072737,-0.204028,49.261547,-123.256332,82.00,1,5,0.314,-0.015,-0.015,-0.949
0.04,-0.02,-0.12,1014.060,-0.092063,0.039623,-0.199557,49.261551,-123.256317,82.00,1,5,0.312,-0.017,-0.015,-0.950
0.04,-0.05,-0.15,1014.064,-0.171379,-0.022311,-0.164781,49.261551,-123.256317,82.00,1,5,0.309,-0.019,-0.015,-0.951
0.04,-0.07,-0.15,1014.064,-0.216057,-0.077143,-0.110901,49.261551,-123.256317,82.00,1,5,0.307,-0.021,-0.015,-0.951
0.03,-0.07,-0.20,1014.070,-0.247850,-0.094470,-0.039668,49.261551,-123.256317,82.00,1,5,0.305,-0.023,-0.014,-0.952
0.03,-0.08,-0.20,1014.070,-0.238345,-0.068599,-0.019816,49.261551,-123.256317,82.00,1,5,0.305,-0.024,-0.012,-0.952
0.02,-0.09,-0.22,1014.072,-0.186901,-0.021332,-0.032620,49.261551,-123.256317,82.00,1,5,0.306,-0.025,-0.009,-0.952
0.02,-0.10,-0.22,1014.072,-0.147002,0.020556,-0.055767,49.261551,-123.256317,82.00,1,5,0.306,-0.026,-0.006,-0.952
0.01,-0.11,-0.19,1014.069,-0.132368,0.038228,-0.061165,49.261551,-123.256317,82.00,1,5,0.304,-0.029,-0.005,-0.952
0.01,-0.12,-0.19,1014.069,-0.118063,-0.006182,-0.046834,49.261551,-123.256317,82.00,1,5,0.302,-0.032,-0.004,-0.953
0.00,-0.12,-0.16,1014.065,-0.106471,-0.040263,0.007742,49.261551,-123.256317,82.00,1,5,0.301,-0.036,-0.006,-0.953
0.00,-0.10,-0.16,1014.065,-0.075254,-0.056477,0.107347,49.261551,-123.256317,82.00,1,5,0.299,-0.037,-0.007,-0.953
-0.00,-0.08,-0.20,1014.070,-0.056883,-0.007798,0.112465,49.261551,-123.256317,82.00,1,5,0.297,-0.037,-0.007,-0.954
-0.01,-0.07,-0.20,1014.070,-0.061556,0.072384,0.088537,49.261551,-123.256317,82.00,1,5,0.295,-0.036,-0.006,-0.955
-0.01,-0.06,-0.26,1014.077,0.003924,0.114663,0.075366,49.261551,-123.256317,82.00,1,5,0.291,-0.032,-0.008,-0.956
-0.02,-0.03,-0.26,1014.077,0.079956,0.099910,0.167179,49.261551,-123.256317,82.00,1,5,0.288,-0.030,-0.012,-0.957
-0.02,0.01,-0.16,1014.065,0.095938,0.095574,0.233884,49.261551,-123.256317,82.00,1,5,0.285,-0.029,-0.016,-0.958
-0.02,0.04,-0.16,1014.065,0.058678,0.083756,0.181760,49.261551,-123.256317,82.00,1,5,0.280,-0.031,-0.018,-0.959
-0.02,0.06,-0.10,1014.058,0.001864,0.072685,0.087561,49.261551,-123.256317,82.00,1,5,0.275,-0.033,-0.020,-0.961
-0.02,0.06,-0.10,1014.058,-0.077521,0.101479,0.040877,49.261551,-123.256317,82.00,1,5,0.269,-0.035,-0.022,-0.962
-0.02,0.07,-0.21,1014.071,-0.151993,0.076374,0.022330,49.261551,-123.256317,82.00,1,5,0.265,-0.036,-0.025,-0.963
-0.02,0.07,-0.21,1014.071,-0.169255,-0.000385,0.044055,49.261551,-123.256317,82.00,1,5,0.264,-0.036,-0.029,-0.964
-0.03,0.08,-0.20,1014.070,-0.133091,-0.042452,0.066003,49.261551,-123.256317,82.00,1,5,0.264,-0.034,-0.031,-0.963
-0.03,0.08,-0.20,1014.070,-0.067733,-0.039709,0.018282,49.261551,-123.256317,82.00,1,5,0.266,-0.029,-0.031,-0.963
-0.03,0.07,-0.17,1014.066,-0.017717,0.015816,-0.067159,49.261551,-123.256317,82.00,1,5,0.267,-0.022,-0.030,-0.963
-0.03,0.05,-0.17,1014.066,0.020102,0.061762,-0.134789,49.261551,-123.256317,82.00,1,5,0.267,-0.016,-0.030,-0.963
-0.03,0.02,-0.14,1014.063,0.035931,0.084200,-0.142372,49.261551,-123.256317,82.00,1,5,0.265,-0.012,-0.029,-0.964
-0.03,-0.00,-0.14,1014.063,0.013654,0.090501,-0.143834,49.261551,-123.256317,82.00,1,5,0.262,-0.012,-0.030,-0.964
-0.03,-0.02,-0.09,1014.056,-0.059266,0.067114,-0.123870,49.261551,-123.256317,82.00,1,5,0.258,-0.015,-0.030,-0.965
-0.03,-0.04,-0.09,1014.056,-0.116848,0.026343,-0.106624,49.261551,-123.256317,82.00,1,5,0.255,-0.019,-0.030,-0.966
-0.03,-0.06,-0.11,1014.059,-0.163851,0.020485,-0.092184,49.261551,-123.256317,82.00,1,5,0.252,-0.024,-0.030,-0.967
-0.04,-0.07,-0.11,1014.059,-0.187160,0.029044,-0.043843,49.261551,-123.256317,82.00,1,5,0.249,-0.028,-0.029,-0.968
-0.04,-0.07,-0.13,1014.061,-0.191483,0.020314,-0.004288,49.261551,-123.256317,82.00,1,5,0.248,-0.031,-0.027,-0.968
-0.04,-0.07,-0.13,1014.061,-0.170796,-0.008420,0.017855,49.261551,-123.256317,82.00,1,5,0.246,-0.032,-0.025,-0.968
-0.05,-0.06,-0.21,1014.071,-0.154959,-0.019094,0.041991,49.261551,-123.256317,82.00,1,5,0.246,-0.033,-0.022,-0.968
-0.05,-0.05,-0.21,1014.071,-0.138842,-0.010690,0.046997,49.261551,-123.256317,82.00,1,5,0.247,-0.034,-0.018,-0.968
-0.05,-0.05,-0.23,1014.074,-0.074515,0.015029,0.019036,49.261551,-123.256317,82.00,1,5,0.249,-0.036,-0.015,-0.968
-0.06,-0.05,-0.23,1014.074,-0.003723,0.015194,0.012517,49.261551,-123.256317,82.00,1,5,0.252,-0.038,-0.013,-0.967
-0.06,-0.04,-0.34,1014.087,0.046633,-0.049426,0.069254,49.261551,-123.256317,82.00,1,5,0.253,-0.041,-0.012,-0.966
-0.07,-0.03,-0.34,1014.087,-0.002359,-0.043918,0.076727,49.261551,-123.256317,82.00,1,5,0.253,-0.042,-0.011,-0.966
-0.07,-0.02,-0.34,1014.087,-0.075028,-0.026894,0.057107,49.261555,-123.256317,82.00,1,5,0.252,-0.043,-0.010,-0.967
-0.07,-0.01,-0.34,1014.087,-0.104796,-0.046176,0.064045,49.261555,-123.256317,82.00,1,5,0.251,-0.042,-0.011,-0.967
-0.08,0.00,-0.38,1014.092,-0.060857,-0.080630,0.088944,49.261555,-123.256317,82.00,1,5,0.251,-0.040,-0.013,-0.967
-0.08,0.02,-0.38,1014.092,0.025140,-0.129864,0.134140,49.261555,-123.256317,82.00,1,5,0.254,-0.039,-0.015,-0.966
-0.09,0.04,-0.34,1014.087,0.082596,-0.121696,0.083721,49.261555,-123.256317,82.00,1,5,0.257,-0.036,-0.016,-0.966
-0.09,0.05,-0.34,1014.087,0.130863,-0.096317,0.067601,49.261555,-123.256317,82.00,1,5,0.261,-0.033,-0.018,-0.965
-0.09,0.06,-0.41,1014.095,0.161007,-0.109548,0.086690,49.261555,-123.256317,82.00,1,5,0.262,-0.029,-0.020,-0.964
-0.10,0.07,-0.41,1014.095,0.119455,-0.099488,0.059504,49.261555,-123.256317,82.00,1,5,0.262,-0.025,-0.022,-0.965
-0.10,0.07,-0.27,1014.078,0.057481,-0.077270,0.010897,49.261555,-123.256317,82.00,1,5,0.260,-0.021,-0.023,-0.965
-0.10,0.06,-0.27,1014.078,-0.002221,-0.071936,-0.047116,49.261555,-123.256317,82.00,1,5,0.258,-0.018,-0.025,-0.966
-0.10,0.05,-0.30,1014.082,-0.052134,-0.070533,-0.082521,49.261555,-123.256317,82.00,1,5,0.257,-0.017,-0.027,-0.966
-0.10,0.04,-0.30,1014.082,-0.093046,-0.096651,-0.025446,49.261555,-123.256317,82.00,1,5,0.258,-0.015,-0.030,-0.966
-0.10,0.04,-0.27,1014.078,-0.116216,-0.106654,0.027135,49.261555,-123.256317,82.00,1,5,0.259,-0.012,-0.033,-0.965
-0.11,0.05,-0.27,1014.078,-0.113423,-0.098840,0.015759,49.261555,-123.256317,82.00,1,5,0.260,-0.008,-0.033,-0.965
-0.11,0.04,-0.23,1014.073,-0.098073,-0.064181,-0.027198,49.261555,-123.256317,82.00,1,5,0.260,-0.004,-0.032,-0.965
-0.11,0.02,-0.23,1014.073,-0.088220,-0.000714,-0.119892,49.261555,-123.256317,82.00,1,5,0.261,-0.001,-0.028,-0.965
-0.11,-0.01,-0.33,1014.085,-0.089025,0.039009,-0.185424,49.261555,-123.256317,82.00,1,5,0.261,-0.000,-0.026,-0.965
-0.11,-0.05,-0.33,1014.085,-0.096250,0.024015,-0.183422,49.261555,-123.256317,82.00,1,5,0.262,-0.002,-0.024,-0.965
-0.12,-0.08,-0.34,1014.086,-0.124298,0.010151,-0.177806,49.261555,-123.256317,82.00,1,5,0.262,-0.005,-0.023,-0.965
-0.12,-0.11,-0.34,1014.086,-0.156332,0.018029,-0.170619,49.261555,-123.256317,82.00,1,5,0.262,-0.008,-0.022,-0.965
-0.13,-0.14,-0.38,1014.091,-0.157505,-0.010652,-0.159719,49.261555,-123.256317,82.00,1,5,0.262,-0.011,-0.020,-0.965
-0.14,-0.16,-0.38,1014.091,-0.130898,-0.008779,-0.124077,49.261555,-123.256317,82.00,1,5,0.262,-0.013,-0.019,-0.965
-0.14,-0.18,-0.38,1014.091,-0.143122,0.006978,-0.102221,49.261555,-123.256317,82.00,1,5,0.261,-0.014,-0.018,-0.965
-0.15,-0.20,-0.38,1014.091,-0.148120,0.045512,-0.096972,49.261555,-123.256317,82.00,1,5,0.260,-0.016,-0.016,-0.965
-0.16,-0.21,-0.45,1014.100,-0.150952,0.065092,-0.068887,49.261555,-123.256317,82.00,1,5,0.259,-0.018,-0.015,-0.966
-0.16,-0.22,-0.45,1014.100,-0.122156,0.054847,-0.038568,49.261555,-123.256317,82.00,1,5,0.259,-0.020,-0.015,-0.966
-0.17,-0.22,-0.57,1014.114,-0.071634,0.025039,-0.011123,49.261555,-123.256317,82.00,1,5,0.258,-0.022,-0.016,-0.966
-0.18,-0.22,-0.57,1014.114,-0.047133,-0.024298,0.052092,49.261555,-123.256317,82.00,1,5,0.256,-0.024,-0.017,-0.966
-0.19,-0.20,-0.57,1014.114,-0.063396,-0.044558,0.096481,49.261555,-123.256317,82.00,1,5,0.254,-0.027,-0.019,-0.967
-0.20,-0.18,-0.57,1014.114,-0.082114,-0.020880,0.154134,49.261555,-123.256317,82.00,1,5,0.253,-0.028,-0.020,-0.967
-0.21,-0.15,-0.62,1014.121,-0.084050,0.008550,0.194782,49.261555,-123.256317,82.00,1,5,0.252,-0.029,-0.021,-0.967
-0.22,-0.12,-0.62,1014.121,-0.080948,0.038790,0.166789,49.261555,-123.256317,82.00,1,5,0.250,-0.029,-0.022,-0.968
-0.23,-0.10,-0.62,1014.121,-0.063775,0.043891,0.167011,49.261555,-123.256317,82.00,1,5,0.247,-0.028,-0.023,-0.968
-0.23,-0.06,-0.62,1014.121,-0.043556,0.028899,0.202433,49.261555,-123.256317,82.00,1,5,0.244,-0.027,-0.026,-0.969
-0.24,-0.03,-0.70,1014.131,-0.047223,0.040383,0.202316,49.261555,-123.256317,82.00,1,5,0.241,-0.027,-0.028,-0.970
-0.25,-0.01,-0.70,1014.131,-0.036450,0.069388,0.141468,49.261555,-123.256317,82.00,1,5,0.240,-0.027,-0.029,-0.970
-0.25,-0.00,-0.74,1014.135,-0.052580,0.100558,0.061257,49.261555,-123.256317,82.00,1,5,0.239,-0.028,-0.031,-0.970
-0.26,0.00,-0.74,1014.135,-0.085228,0.082076,0.041920,49.261555,-123.256317,82.00,1,5,0.238,-0.028,-0.034,-0.970
-0.27,0.01,-0.75,1014.137,-0.107645,0.050102,0.052025,49.261555,-123.256317,82.00,1,5,0.239,-0.026,-0.038,-0.970
-0.27,0.02,-0.75,1014.137,-0.070010,0.005695,0.072297,49.261559,-123.256302,82.00,1,5,0.241,-0.023,-0.042,-0.969
-0.28,0.02,-0.70,1014.130,-0.011685,-0.020045,0.043931,49.261559,-123.256302,82.00,1,5,0.244,-0.019,-0.044,-0.969
-0.29,0.02,-0.70,1014.130,0.019929,0.002946,-0.024850,49.261559,-123.256302,82.00,1,5,0.245,-0.014,-0.044,-0.968
-0.29,-0.00,-0.63,1014.122,0.025330,0.007591,-0.099135,49.261559,-123.256302,82.00,1,5,0.246,-0.009,-0.043,-0.968
-0.30,-0.03,-0.63,1014.122,0.022016,0.058389,-0.128700,49.261559,-123.256302,82.00,1,5,0.245,-0.005,-0.044,-0.969
-0.30,-0.05,-0.62,1014.120,0.002823,0.077212,-0.107741,49.261559,-123.256302,82.00,1,5,0.243,-0.003,-0.045,-0.969
-0.31,-0.07,-0.62,1014.120,-0.037481,0.076287,-0.112316,49.261559,-123.256302,82.00,1,5,0.241,-0.006,-0.045,-0.969
-0.31,-0.09,-0.49,1014.105,-0.083088,0.056931,-0.123952,49.261559,-123.256302,82.00,1,5,0.238,-0.011,-0.044,-0.970
-0.31,-0.11,-0.49,1014.105,-0.145821,0.031699,-0.112032,49.261559,-123.256302,82.00,1,5,0.235,-0.017,-0.042,-0.971
-0.32,-0.14,-0.48,1014.103,-0.212571,0.056105,-0.136656,49.261559,-123.256302,82.00,1,5,0.233,-0.023,-0.039,-0.971
-0.32,-0.16,-0.48,1014.103,-0.219762,0.085316,-0.140426,49.261559,-123.256302,82.00,1,5,0.233,-0.027,-0.036,-0.972
-0.33,-0.18,-0.56,1014.113,-0.179078,0.061905,-0.104027,49.261559,-123.256302,82.00,1,5,0.233,-0.030,-0.033,-0.971
-0.34,-0.19,-0.56,1014.113,-0.150334,0.054029,-0.031463,49.261559,-123.256302,82.00,1,5,0.233,-0.031,-0.030,-0.972
-0.34,-0.19,-0.54,1014.111,-0.162476,0.056608,-0.028017,49.261559,-123.256302,82.00,1,5,0.232,-0.031,-0.026,-0.972
-0.35,-0.20,-0.54,1014.111,-0.150315,0.048339,-0.039159,49.261559,-123.256302,82.00,1,5,0.232,-0.031,-0.023,-0.972
-0.35,-0.20,-0.50,1014.106,-0.073113,0.018546,-0.019682,49.261559,-123.256302,82.00,1,5,0.233,-0.031,-0.021,-0.972
-0.36,-0.20,-0.50,1014.106,0.001567,-0.016910,0.012005,49.261559,-123.256302,82.00,1,5,0.235,-0.033,-0.020,-0.971
-0.37,-0.20,-0.53,1014.110,0.032658,-0.010964,0.023466,49.261559,-123.256302,82.00,1,5,0.237,-0.034,-0.019,-0.971
-0.37,-0.20,-0.53,1014.110,-0.002691,0.023876,0.009714,49.261559,-123.256302,82.00,1,5,0.237,-0.034,-0.018,-0.971
-0.38,-0.20,-0.57,1014.115,-0.054036,0.053419,0.027533,49.261559,-123.256302,82.00,1,5,0.236,-0.034,-0.017,-0.971
-0.38,-0.20,-0.57,1014.115,-0.073399,0.062702,0.009827,49.261559,-123.256302,82.00,1,5,0.235,-0.031,-0.016,-0.971
-0.39,-0.19,-0.64,1014.115,-0.016953,0.056554,0.024987,49.261559,-123.256302,82.00,1,5,0.236,-0.029,-0.018,-0.971
-0.40,-0.18,-0.64,1014.123,0.066135,-0.026239,0.100504,49.261559,-123.256302,82.00,1,5,0.238,-0.026,-0.021,-0.971
-0.40,-0.15,-0.64,1014.123,0.132000,-0.061712,0.147774,49.261559,-123.256302,82.00,1,5,0.240,-0.024,-0.024,-0.970
-0.41,-0.12,-0.58,1014.116,0.155133,-0.060140,0.173121,49.261559,-123.256302,82.00,1,5,0.242,-0.021,-0.027,-0.970
-0.41,-0.10,-0.58,1014.116,0.168461,-0.080857,0.163564,49.261559,-123.256302,82.00,1,5,0.241,-0.018,-0.029,-0.970
-0.42,-0.08,-0.60,1014.118,0.102582,-0.082371,0.075739,49.261559,-123.256302,82.00,1,5,0.237,-0.016,-0.031,-0.971
-0.42,-0.08,-0.60,1014.118,-0.002960,-0.089930,0.062734,49.261559,-123.256302,82.00,1,5,0.233,-0.015,-0.034,-0.972
-0.43,-0.07,-0.58,1014.116,-0.107849,-0.084925,0.052375,49.261559,-123.256302,82.00,1,5,0.231,-0.015,-0.037,-0.972
-0.43,-0.07,-0.58,1014.116,-0.141764,-0.080356,0.012583,49.261559,-123.256302,82.00,1,5,0.231,-0.015,-0.040,-0.972
-0.43,-0.07,-0.55,1014.112,-0.119981,-0.094085,-0.013384,49.261559,-123.256302,82.00,1,5,0.232,-0.013,-0.042,-0.972
-0.43,-0.07,-0.55,1014.112,-0.074677,-0.083627,-0.002270,49.261559,-123.256302,82.00,1,5,0.232,-0.008,-0.045,-0.972
-0.44,-0.07,-0.58,1014.116,-0.074653,-0.065692,-0.022489,49.261559,-123.256302,82.00,1,5,0.232,-0.002,-0.047,-0.972
-0.44,-0.08,-0.58,1014.116,-0.079899,-0.052825,-0.052509,49.261559,-123.256302,82.00,1,5,0.230,0.003,-0.048,-0.972
-0.45,-0.10,-0.66,1014.125,-0.099585,-0.045057,-0.057239,49.261559,-123.256302,82.00,1,5,0.229,0.008,-0.048,-0.972
-0.45,-0.12,-0.66,1014.125,-0.145159,0.004894,-0.107339,49.261559,-123.256302,82.00,1,5,0.229,0.009,-0.047,-0.972
-0.46,-0.14,-0.62,1014.120,-0.133454,0.028671,-0.153244,49.261559,-123.256302,82.00,1,5,0.229,0.009,-0.046,-0.972
-0.46,-0.17,-0.62,1014.120,-0.092917,0.010810,-0.149256,49.261559,-123.256302,82.00,1,5,0.230,0.006,-0.046,-0.972
-0.47,-0.19,-0.59,1014.117,-0.096248,-0.005634,-0.113290,49.261559,-123.256302,82.00,1,5,0.229,0.001,-0.046,-0.972
-0.47,-0.20,-0.59,1014.117,-0.146567,-0.034228,-0.069061,49.261562,-123.256294,82.00,1,5,0.226,-0.003,-0.046,-0.973
-0.47,-0.21,-0.50,1014.105,-0.190645,-0.068454,-0.036898,49.261562,-123.256294,82.00,1,5,0.224,-0.007,-0.045,-0.974
-0.48,-0.21,-0.50,1014.105,-0.192861,-0.063701,-0.032300,49.261562,-123.256294,82.00,1,5,0.221,-0.011,-0.042,-0.974
-0.48,-0.23,-0.41,1014.095,-0.172813,-0.011804,-0.117396,49.261562,-123.256294,82.00,1,5,0.221,-0.015,-0.038,-0.974
-0.48,-0.26,-0.41,1014.095,-0.143062,0.046986,-0.147424,49.261562,-123.256294,82.00,1,5,0.221,-0.020,-0.036,-0.974
-0.49,-0.28,-0.49,1014.105,-0.127759,0.077869,-0.115435,49.261562,-123.256294,82.00,1,5,0.220,-0.025,-0.034,-0.975
-0.49,-0.28,-0.49,1014.105,-0.098841,0.036525,-0.035099,49.261562,-123.256294,82.00,1,5,0.219,-0.030,-0.034,-0.975
-0.50,-0.27,-0.33,1014.085,-0.041229,-0.016176,0.094171,49.261562,-123.256294,82.00,1,5,0.217,-0.033,-0.033,-0.975
-0.50,-0.25,-0.33,1014.085,-0.029862,-0.029684,0.083373,49.261562,-123.256294,82.00,1,5,0.215,-0.035,-0.032,-0.975
-0.50,-0.25,-0.38,1014.092,-0.052743,0.000712,0.022731,49.261562,-123.256294,82.00,1,5,0.212,-0.036,-0.031,-0.976
-0.50,-0.24,-0.38,1014.092,-0.119381,0.020951,0.045249,49.261562,-123.256294,82.00,1,5,0.209,-0.037,-0.031,-0.977
-0.51,-0.23,-0.44,1014.098,-0.177887,0.066420,0.077915,49.261562,-123.256294,82.00,1,5,0.208,-0.036,-0.032,-0.977
-0.51,-0.20,-0.44,1014.098,-0.140214,0.047026,0.121323,49.261562,-123.256294,82.00,1,5,0.210,-0.034,-0.035,-0.977
-0.51,-0.17,-0.28,1014.080,-0.027314,0.013904,0.195356,49.261562,-123.256294,82.00,1,5,0.212,-0.032,-0.039,-0.976
-0.51,-0.13,-0.28,1014.080,0.024288,0.019458,0.244468,49.261562,-123.256294,82.00,1,5,0.212,-0.029,-0.041,-0.976
-0.51,-0.09,-0.33,1014.085,-0.002466,0.063956,0.180020,49.261562,-123.256294,82.00,1,5,0.210,-0.026,-0.042,-0.976
-0.51,-0.08,-0.33,1014.085,-0.049412,0.100555,0.091632,49.261562,-123.256294,82.00,1,5,0.208,-0.023,-0.042,-0.977
-0.51,-0.07,-0.33,1014.085,-0.066639,0.119053,0.028153,49.261562,-123.256294,82.00,1,5,0.207,-0.022,-0.044,-0.977
-0.50,-0.07,-0.33,1014.085,-0.073748,0.111606,0.008718,49.261562,-123.256294,82.00,1,5,0.207,-0.020,-0.047,-0.977
-0.50,-0.06,-0.34,1014.087,-0.064442,0.057689,0.021371,49.261562,-123.256294,82.00,1,5,0.208,-0.019,-0.050,-0.977
-0.50,-0.06,-0.34,1014.087,-0.033461,0.012283,0.044008,49.261562,-123.256294,82.00,1,5,0.210,-0.019,-0.054,-0.976
-0.50,-0.04,-0.31,1014.083,0.004294,-0.031499,0.056800,49.261562,-123.256294,82.00,1,5,0.212,-0.019,-0.057,-0.975
-0.50,-0.04,-0.31,1014.083,0.033835,-0.038536,0.043050,49.261562,-123.256294,82.00,1,5,0.214,-0.017,-0.058,-0.975
-0.50,-0.03,-0.34,1014.087,0.054120,-0.007862,0.008911,49.261562,-123.256294,82.00,1,5,0.214,-0.014,-0.057,-0.975
-0.50,-0.04,-0.34,1014.087,0.052531,0.047572,-0.037538,49.261562,-123.256294,82.00,1,5,0.212,-0.012,-0.055,-0.976
-0.49,-0.05,-0.31,1014.083,0.021378,0.095682,-0.100091,49.261562,-123.256294,82.00,1,5,0.208,-0.011,-0.053,-0.977
-0.49,-0.08,-0.31,1014.083,-0.050068,0.087939,-0.153181,49.261562,-123.256287,82.00,1,5,0.202,-0.014,-0.050,-0.978
-0.49,-0.11,-0.34,1014.086,-0.130691,0.063071,-0.167461,49.261562,-123.256287,82.00,1,5,0.197,-0.019,-0.048,-0.979
-0.49,-0.14,-0.34,1014.086,-0.193022,0.079795,-0.181505,49.261562,-123.256287,82.00,1,5,0.194,-0.025,-0.046,-0.980
-0.49,-0.16,-0.28,1014.080,-0.209128,0.083381,-0.127888,49.261562,-123.256287,82.00,1,5,0.192,-0.031,-0.045,-0.980
-0.49,-0.17,-0.28,1014.080,-0.213227,0.086763,-0.069945,49.261562,-123.256287,82.00,1,5,0.192,-0.036,-0.044,-0.980
-0.49,-0.17,-0.32,1014.085,-0.190070,0.058895,-0.003153,49.261562,-123.256287,82.00,1,5,0.191,-0.038,-0.042,-0.980
-0.49,-0.17,-0.32,1014.085,-0.172658,0.038720,-0.007636,49.261562,-123.256287,82.00,1,5,0.191,-0.039,-0.038,-0.980
-0.49,-0.17,-0.32,1014.085,-0.136879,0.043598,-0.009798,49.261562,-123.256287,82.00,1,5,0.190,-0.037,-0.035,-0.980
-0.49,-0.17,-0.32,1014.085,-0.082251,0.067681,-0.013765,49.261562,-123.256287,82.00,1,5,0.191,-0.037,-0.033,-0.980
-0.49,-0.17,-0.27,1014.078,-0.020030,0.048753,0.024834,49.261562,-123.256287,82.00,1,5,0.192,-0.037,-0.032,-0.980
-0.49,-0.15,-0.27,1014.078,0.036334,-0.008572,0.093018,49.261562,-123.256287,82.00,1,5,0.194,-0.039,-0.032,-0.980
-0.49,-0.13,-0.27,1014.078,0.029267,-0.028635,0.099438,49.261562,-123.256287,82.00,1,5,0.194,-0.041,-0.031,-0.980
-0.49,-0.13,-0.27,1014.078,-0.034055,0.030884,-0.004995,49.261562,-123.256287,82.00,1,5,0.193,-0.043,-0.028,-0.980
-0.49,-0.14,-0.25,1014.076,-0.106938,0.047784,-0.050582,49.261562,-123.256287,82.00,1,5,0.191,-0.044,-0.026,-0.980
-0.49,-0.15,-0.25,1014.076,-0.121247,0.054443,-0.055294,49.261562,-123.256287,82.00,1,5,0.192,-0.045,-0.027,-0.980
-0.49,-0.15,-0.29,1014.081,-0.083454,0.016038,-0.006973,49.261562,-123.256287,82.00,1,5,0.194,-0.045,-0.030,-0.980
-0.49,-0.12,-0.29,1014.081,-0.014700,-0.057220,0.119588,49.261562,-123.256287,82.00,1,5,0.196,-0.042,-0.034,-0.979
-0.49,-0.09,-0.38,1014.091,0.042871,-0.090052,0.185495,49.261562,-123.256287,82.00,1,5,0.197,-0.038,-0.037,-0.979
-0.49,-0.07,-0.38,1014.091,0.057623,-0.063610,0.145344,49.261562,-123.256287,82.00,1,5,0.197,-0.033,-0.038,-0.979
-0.49,-0.06,-0.40,1014.094,0.053200,-0.039152,0.041379,49.261562,-123.256287,82.00,1,5,0.195,-0.029,-0.039,-0.980
-0.49,-0.05,-0.40,1014.094,0.008666,-0.025236,0.018368,49.261562,-123.256287,82.00,1,5,0.194,-0.028,-0.041,-0.980
-0.49,-0.04,-0.40,1014.094,-0.048411,-0.048320,0.055470,49.261562,-123.256287,82.00,1,5,0.194,-0.029,-0.043,-0.980
-0.49,-0.03,-0.40,1014.094,-0.071638,-0.082001,0.056066,49.261562,-123.256287,82.00,1,5,0.195,-0.030,-0.045,-0.979
-0.49,-0.02,-0.42,1014.096,-0.068578,-0.085955,0.082626,49.261562,-123.256287,82.00,1,5,0.197,-0.027,-0.047,-0.979
-0.49,-0.01,-0.42,1014.096,-0.060622,-0.092894,0.055707,49.261562,-123.256287,82.00,1,5,0.197,-0.021,-0.047,-0.979
-0.49,0.00,-0.51,1014.107,-0.066987,-0.086125,0.056926,49.261562,-123.256287,82.00,1,5,0.197,-0.014,-0.047,-0.979
-0.49,0.01,-0.51,1014.107,-0.076074,-0.059260,0.030343,49.261562,-123.256287,80.70,1,5,0.196,-0.008,-0.046,-0.980
-0.49,0.00,-0.44,1014.099,-0.062815,-0.025311,-0.028508,49.261562,-123.256287,80.70,1,5,0.196,-0.004,-0.044,-0.980
-0.49,-0.01,-0.44,1014.099,-0.041882,-0.014513,-0.072795,49.261562,-123.256287,80.70,1,5,0.196,-0.004,-0.042,-0.980
-0.49,-0.03,-0.45,1014.100,-0.049492,-0.010555,-0.120008,49.261562,-123.256287,80.70,1,5,0.195,-0.006,-0.040,-0.980
-0.49,-0.06,-0.45,1014.100,-0.069564,-0.025722,-0.138364,49.261562,-123.256287,80.70,1,5,0.193,-0.009,-0.039,-0.980
-0.49,-0.08,-0.39,1014.092,-0.101523,-0.045469,-0.122355,49.261562,-123.256287,80.70,1,5,0.190,-0.013,-0.037,-0.981
-0.49,-0.10,-0.39,1014.092,-0.139305,-0.055278,-0.124405,49.261562,-123.256287,80.70,1,5,0.186,-0.015,-0.036,-0.982
